,Unnamed: 0,Attention Button,Attention Level,Attention Probe,Attention Reaction Time (s),Attention Reaction Time (s).1,Category,Cue Validity,Cued Category,Cued Composite,Cued Face,Cued Place,Cued Side,Experiment,Familiarity Rating,Familiarity Reaction Time (s),Group,Memory Image,Post Invalid Cue,Pre Invalid Cue,Rating History,Run,Stimulus End,Stimulus Onset,Subject,Trial,Trial Type,Uncued Composite,Uncued Face,Uncued Place,UniqueID,Unnamed: 0.1,Unnamed: 0.1.1,Unnamed: 0.1.1
0,0,3.0,,x,0.9397999999999982,0.9397999999999982,,1.0,Face,00070940307fa_sunaaeplwsfslcbtojr.jpg,00070940307fa.jpg,sunaaeplwsfslcbtojr.jpg,>,/data/su,,,,,,,,0,1570972421.7338,1570972418.7190998,34,0.0,Presentation,00631940928fa_sunadbdqzigzwipuipr.jpg,00631940928fa.jpg,sunadbdqzigzwipuipr.jpg,0,20,0,0
1,1,1.0,,o,1.1066000000000005,1.1066000000000005,,1.0,Face,00800941205fb_sunagvjurcwdbixvnyi.jpg,00800941205fb.jpg,sunagvjurcwdbixvnyi.jpg,>,/data/su,,,,,,,,0,1570972426.7187,1570972423.7038,34,1.0,Presentation,00630941031fa_sunadakkdovnuzlycvp.jpg,00630941031fa.jpg,sunadakkdovnuzlycvp.jpg,0,21,1,1
2,2,3.0,,x,0.5631000000000022,0.5631000000000022,,1.0,Face,00894960620fa_sunalqmfgeadpqsyzpd.jpg,00894960620fa.jpg,sunalqmfgeadpqsyzpd.jpg,>,/data/su,,,,,,,,0,1570972431.8702998,1570972428.8555,34,2.0,Presentation,00926960627Fa_sunapqwoeotxshkukbh.jpg,00926960627Fa.jpg,sunapqwoeotxshkukbh.jpg,0,22,2,2
3,3,3.0,,x,0.5448999999999984,0.5448999999999984,,1.0,Face,00753941201fa_sunafcofuuzebuadceo.jpg,00753941201fa.jpg,sunafcofuuzebuadceo.jpg,>,/data/su,,,,,,,,0,1570972436.4884,1570972433.4741,34,3.0,Presentation,00314940422fa_sunabwmcbaxwioksdgw.jpg,00314940422fa.jpg,sunabwmcbaxwioksdgw.jpg,0,23,3,3
4,4,3.0,,x,0.8233999999999995,0.8233999999999995,,0.0,Face,00562941031fa_sunacjnahdmqfnjfwqx.jpg,00562941031fa.jpg,sunacjnahdmqfnjfwqx.jpg,>,/data/su,,,,,,,,0,1570972441.0898998,1570972438.0753,34,4.0,Presentation,00779941205fa_sunagdzlvkqtpnfxfcg.jpg,00779941205fa.jpg,sunagdzlvkqtpnfxfcg.jpg,0,24,4,4
5,5,3.0,,x,0.4430999999999941,0.4430999999999941,,1.0,Face,00109931230fa_sunaajuzribjrizdshh.jpg,00109931230fa.jpg,sunaajuzribjrizdshh.jpg,>,/data/su,,,,,,,,0,1570972445.9582,1570972442.9443,34,5.0,Presentation,00725941201fa_sunaefgzwiramypjvtd.jpg,00725941201fa.jpg,sunaefgzwiramypjvtd.jpg,0,25,5,5
6,6,1.0,,o,0.9582999999999942,0.9582999999999942,,1.0,Face,00482940519fa_sunabyfxcxhdebvdyfd.jpg,00482940519fa.jpg,sunabyfxcxhdebvdyfd.jpg,>,/data/su,,,,,,,,0,1570972450.4432,1570972447.4287,34,6.0,Presentation,00127931230fa_sunaampvucecsfbdafn.jpg,00127931230fa.jpg,sunaampvucecsfbdafn.jpg,0,26,6,6
7,7,3.0,,x,0.7805000000000035,0.7805000000000035,,1.0,Face,00548940519fa_sunacerqowiaeoqkmsq.jpg,00548940519fa.jpg,sunacerqowiaeoqkmsq.jpg,>,/data/su,,,,,,,,0,1570972455.4446,1570972452.4301,34,7.0,Presentation,00766960620fa_sunafijbgncijwykrnl.jpg,00766960620fa.jpg,sunafijbgncijwykrnl.jpg,0,27,7,7
8,8,3.0,,x,0.8175999999999988,0.8175999999999988,,1.0,Face,00812941205fa_sunahgtbwgsmtqeodwh.jpg,00812941205fa.jpg,sunahgtbwgsmtqeodwh.jpg,>,/data/su,,,,,,,,0,1570972460.2796,1570972457.2652,34,8.0,Presentation,00887960530_sunalcrtwiycqobgelp.jpg,00887960530.jpg,sunalcrtwiycqobgelp.jpg,0,28,8,8
9,9,3.0,,x,0.6370999999999967,0.6370999999999967,,1.0,Face,00874940307fa_sunajtrfunvzdfticna.jpg,00874940307fa.jpg,sunajtrfunvzdfticna.jpg,>,/data/su,,,,,,,,0,1570972465.1481998,1570972462.1335,34,9.0,Presentation,00959960627fa_sunavxokzybtomhbmvm.jpg,00959960627fa.jpg,sunavxokzybtomhbmvm.jpg,0,29,9,9
10,10,,Novel_Cued_Cat,,,,Face,,Face,,,,,/data/su,,0.0,,00988960627fa.jpg,,,,0,1570972516.0131,1570972514.0161,34,0.0,Memory,,,,0,80,10,10
11,11,,None,,,,Place,,Face,,,,,/data/su,,0.0,,sunadbdqzigzwipuipr.jpg,,,,0,1570972519.0143998,1570972517.0314,34,1.0,Memory,,,,0,81,11,11
12,12,,Side,,,,Place,,Face,,,,,/data/su,1.0,1.453,,sunabyfxcxhdebvdyfd.jpg,,,,0,1570972522.0317998,1570972520.0194998,34,2.0,Memory,,,,0,82,12,12
13,13,,Novel_Uncued_Cat,,,,Place,,Face,,,,,/data/su,1.0,1.003,,sunaffgsyyvoqdlkmnk.jpg,,,,0,1570972525.0496998,1570972523.0366,34,3.0,Memory,,,,0,83,13,13
14,14,,Novel_Cued_Cat,,,,Face,,Face,,,,,/data/su,3.0,1.304,,00895960530fa.jpg,,,,0,1570972528.0521,1570972526.0545998,34,4.0,Memory,,,,0,84,14,14
15,15,,Novel_Uncued_Cat,,,,Place,,Face,,,,,/data/su,3.0,1.069,,sunaddsaeicthrfbkhe.jpg,,,,0,1570972531.0670998,1570972529.0549,34,5.0,Memory,,,,0,85,15,15
16,16,,Novel_Uncued_Cat,,,,Place,,Face,,,,,/data/su,4.0,0.9259999999999999,,sunabmytpyhsgigllxu.jpg,,,,0,1570972534.0693,1570972532.0728,34,6.0,Memory,,,,0,86,16,16
17,17,,Full,,,,Face,,Face,,,,,/data/su,1.0,1.204,,00753941201fa.jpg,,,,0,1570972537.0728,1570972535.0872,34,7.0,Memory,,,,0,87,17,17
18,18,,Novel_Cued_Cat,,,,Face,,Face,,,,,/data/su,1.0,1.143,,00836940307fa.jpg,,,,0,1570972540.0877998,1570972538.0744,34,8.0,Memory,,,,0,88,18,18
19,19,,Novel_Cued_Cat,,,,Face,,Face,,,,,/data/su,3.0,1.27,,00635941031fa.jpg,,,,0,1570972543.0919998,1570972541.0925,34,9.0,Memory,,,,0,89,19,19
20,20,,Category,,,,Face,,Face,,,,,/data/su,3.0,0.937,,00630941031fa.jpg,,,,0,1570972546.1067,1570972544.093,34,10.0,Memory,,,,0,90,20,20
21,21,,Full,,,,Face,,Face,,,,,/data/su,4.0,1.153,,00070940307fa.jpg,,,,0,1570972549.1114,1570972547.1107998,34,11.0,Memory,,,,0,91,21,21
22,22,,Novel_Uncued_Cat,,,,Place,,Face,,,,,/data/su,1.0,1.2,,sunaiwfobocrruqznsv.jpg,,,,0,1570972552.1160002,1570972550.1128,34,12.0,Memory,,,,0,92,22,22
23,23,,Novel_Cued_Cat,,,,Face,,Face,,,,,/data/su,2.0,1.071,,00290940422fa.jpg,,,,0,1570972555.1278,1570972553.1260998,34,13.0,Memory,,,,0,93,23,23
24,24,,Category,,,,Face,,Face,,,,,/data/su,2.0,0.991,,00926960627Fa.jpg,,,,0,1570972558.129,1570972556.1306,34,14.0,Memory,,,,0,94,24,24
25,25,,Full,,,,Face,,Face,,,,,/data/su,4.0,0.7509999999999999,,00482940519fa.jpg,,,,0,1570972561.1465,1570972559.1314,34,15.0,Memory,,,,0,95,25,25
26,26,,Side,,,,Place,,Face,,,,,/data/su,2.0,1.271,,sunaaeplwsfslcbtojr.jpg,,,,0,1570972564.1616998,1570972562.1490998,34,16.0,Memory,,,,0,96,26,26
27,27,,Novel_Uncued_Cat,,,,Place,,Face,,,,,/data/su,2.0,1.042,,sunafbwnojpqeyzssoe.jpg,,,,0,1570972567.1625,1570972565.1673,34,17.0,Memory,,,,0,97,27,27
28,28,,Category,,,,Face,,Face,,,,,/data/su,4.0,1.137,,00779941205fa.jpg,,,,0,1570972570.1688,1570972568.1676,34,18.0,Memory,,,,0,98,28,28
29,29,,Novel_Cued_Cat,,,,Face,,Face,,,,,/data/su,4.0,0.872,,00754941201fa.jpg,,,,0,1570972573.1820998,1570972571.1692998,34,19.0,Memory,,,,0,99,29,29
30,30,,Novel_Uncued_Cat,,,,Place,,Face,,,,,/data/su,2.0,1.2409999999999999,,sunbmaiocftdtvnzgap.jpg,,,,0,1570972576.1989,1570972574.1864,34,20.0,Memory,,,,0,100,30,30
31,31,,Full,,,,Face,,Face,,,,,/data/su,2.0,1.07,,00812941205fa.jpg,,,,0,1570972579.2031,1570972577.2036,34,21.0,Memory,,,,0,101,31,31
32,32,,Novel_Uncued_Cat,,,,Place,,Face,,,,,/data/su,3.0,0.95,,sunainqelldeebvxtcz.jpg,,,,0,1570972582.2052,1570972580.2182,34,22.0,Memory,,,,0,102,32,32
33,33,,Category,,,,Face,,Face,,,,,/data/su,3.0,0.991,,00887960530.jpg,,,,0,1570972585.2194,1570972583.2066998,34,23.0,Memory,,,,0,103,33,33
34,34,,Novel_Cued_Cat,,,,Face,,Face,,,,,/data/su,4.0,1.057,,00060931230fa.jpg,,,,0,1570972588.2236998,1570972586.2238998,34,24.0,Memory,,,,0,104,34,34
35,35,,Side,,,,Place,,Face,,,,,/data/su,2.0,1.12,,sunafcofuuzebuadceo.jpg,,,,0,1570972591.2366998,1570972589.2245,34,25.0,Memory,,,,0,105,35,35
36,36,,Novel_Cued_Cat,,,,Face,,Face,,,,,/data/su,4.0,1.037,,00276940422fa.jpg,,,,0,1570972594.2452998,1570972592.2417,34,26.0,Memory,,,,0,106,36,36
37,37,,None,,,,Place,,Face,,,,,/data/su,2.0,0.885,,sunadakkdovnuzlycvp.jpg,,,,0,1570972597.2605,1570972595.2436,34,27.0,Memory,,,,0,107,37,37
38,38,,Novel_Uncued_Cat,,,,Place,,Face,,,,,/data/su,2.0,0.8240000000000001,,sunamczizlzavhzhpay.jpg,,,,0,1570972600.2643,1570972598.2606,34,28.0,Memory,,,,0,108,38,38
39,39,,Side,,,,Place,,Face,,,,,/data/su,2.0,0.813,,sunacerqowiaeoqkmsq.jpg,,,,0,1570972603.2745998,1570972601.2626,34,29.0,Memory,,,,0,109,39,39
40,40,,Novel_Cued_Cat,,,,Face,,Face,,,,,/data/su,2.0,1.053,,00857940307fa.jpg,,,,0,1570972606.2756,1570972604.2791,34,30.0,Memory,,,,0,110,40,40
41,41,,Novel_Cued_Cat,,,,Face,,Face,,,,,/data/su,3.0,1.056,,00752960620fa.jpg,,,,0,1570972609.2761998,1570972607.2803,34,31.0,Memory,,,,0,111,41,41
42,42,,Full,,,,Face,,Face,,,,,/data/su,3.0,0.893,,00548940519fa.jpg,,,,0,1570972612.2824998,1570972610.2812998,34,32.0,Memory,,,,0,112,42,42
43,43,,Side,,,,Place,,Face,,,,,/data/su,1.0,1.538,,sunahgtbwgsmtqeodwh.jpg,,,,0,1570972615.2829998,1570972613.2822998,34,33.0,Memory,,,,0,113,43,43
44,44,,Category,,,,Face,,Face,,,,,/data/su,2.0,1.249,,00631940928fa.jpg,,,,0,1570972618.2991,1570972616.2836,34,34.0,Memory,,,,0,114,44,44
45,45,,Novel_Uncued_Cat,,,,Place,,Face,,,,,/data/su,2.0,0.8170000000000001,,sunabqowuarvqqcnipn.jpg,,,,0,1570972621.3131,1570972619.3007998,34,35.0,Memory,,,,0,115,45,45
46,46,,None,,,,Place,,Face,,,,,/data/su,2.0,0.804,,sunalcrtwiycqobgelp.jpg,,,,0,1570972624.314,1570972622.3186998,34,36.0,Memory,,,,0,116,46,46
47,47,,Novel_Uncued_Cat,,,,Place,,Face,,,,,/data/su,2.0,1.17,,sunaaehaikpckyjsety.jpg,,,,0,1570972627.3212,1570972625.32,34,37.0,Memory,,,,0,117,47,47
48,48,,None,,,,Place,,Face,,,,,/data/su,1.0,1.558,,sunagdzlvkqtpnfxfcg.jpg,,,,0,1570972630.3368,1570972628.3207,34,38.0,Memory,,,,0,118,48,48
49,49,,None,,,,Place,,Face,,,,,/data/su,2.0,1.1320000000000001,,sunapqwoeotxshkukbh.jpg,,,,0,1570972633.3384,1570972631.3384998,34,39.0,Memory,,,,0,119,49,49
50,50,3.0,,x,1.2851,1.2851,,1.0,Place,00984960627fa_sunbfzchmomnvzhbxdg.jpg,00984960627fa.jpg,sunbfzchmomnvzhbxdg.jpg,<,/data/su,,,,,,,,1,1570972929.3257,1570972926.312,34,0.0,Presentation,00902960530fa_sunanaacmmosxrfwmvl.jpg,00902960530fa.jpg,sunanaacmmosxrfwmvl.jpg,0,30,50,50
51,51,1.0,,o,1.2382999999999988,1.2382999999999988,,0.0,Place,00479940519fa_sunabxsbfwjccqxxzxq.jpg,00479940519fa.jpg,sunabxsbfwjccqxxzxq.jpg,<,/data/su,,,,,,,,1,1570972934.6443,1570972931.63,34,1.0,Presentation,00316940422fa_sunabxmguapjekttvwm.jpg,00316940422fa.jpg,sunabxmguapjekttvwm.jpg,0,31,51,51
52,52,1.0,,o,0.6654999999999979,0.6654999999999979,,1.0,Place,00089931230fa_sunaagcpoejbuzyvddd.jpg,00089931230fa.jpg,sunaagcpoejbuzyvddd.jpg,<,/data/su,,,,,,,,1,1570972939.9292002,1570972936.9153,34,2.0,Presentation,00901960530fa_sunammbnoambmhdxdwd.jpg,00901960530fa.jpg,sunammbnoambmhdxdwd.jpg,0,32,52,52
53,53,3.0,,x,1.0032999999999994,1.0032999999999994,,1.0,Place,00498960627fa_sunabzjxlmkwnwzimua.jpg,00498960627fa.jpg,sunabzjxlmkwnwzimua.jpg,<,/data/su,,,,,,,,1,1570972944.6474,1570972941.6328,34,3.0,Presentation,00288940422fa_sunabppokiyglaxpcha.jpg,00288940422fa.jpg,sunabppokiyglaxpcha.jpg,0,33,53,53
54,54,3.0,,o,0.7432000000000016,0.7432000000000016,,1.0,Place,00090931230fa_sunaahedjlmtqekgyvj.jpg,00090931230fa.jpg,sunaahedjlmtqekgyvj.jpg,<,/data/su,,,,,,,,1,1570972949.6993,1570972946.6848,34,4.0,Presentation,00638941031fa_sunadfktsqjthoglcsm.jpg,00638941031fa.jpg,sunadfktsqjthoglcsm.jpg,0,34,54,54
55,55,3.0,,x,0.7507999999999981,0.7507999999999981,,1.0,Place,00786941205fa_sunagmhildamktmqjss.jpg,00786941205fa.jpg,sunagmhildamktmqjss.jpg,<,/data/su,,,,,,,,1,1570972954.4837,1570972951.4702,34,5.0,Presentation,00839940307fa_sunaipyohrqlwngaqif.jpg,00839940307fa.jpg,sunaipyohrqlwngaqif.jpg,0,35,55,55
56,56,3.0,,x,0.6773000000000025,0.6773000000000025,,1.0,Place,00727941205fa_sunaeisnjeetzmkbuad.jpg,00727941205fa.jpg,sunaeisnjeetzmkbuad.jpg,<,/data/su,,,,,,,,1,1570972959.2853,1570972956.2715,34,6.0,Presentation,00096931230fa_sunaaiqiqcggrskoqgy.jpg,00096931230fa.jpg,sunaaiqiqcggrskoqgy.jpg,0,36,56,56
57,57,3.0,,o,0.9187000000000012,0.9187000000000012,,1.0,Place,00581940928fa_sunacvzhvcksnwqcqbw.jpg,00581940928fa.jpg,sunacvzhvcksnwqcqbw.jpg,<,/data/su,,,,,,,,1,1570972964.0038002,1570972960.9905,34,7.0,Presentation,00961960627fa_sunawotxrevnqvamsfp.jpg,00961960627fa.jpg,sunawotxrevnqvamsfp.jpg,0,37,57,57
58,58,3.0,,x,0.7184999999999988,0.7184999999999988,,1.0,Place,00803941205fa_sunagvxkjokqimstxpe.jpg,00803941205fa.jpg,sunagvxkjokqimstxpe.jpg,<,/data/su,,,,,,,,1,1570972968.9719,1570972965.9579,34,8.0,Presentation,00120931230fa_sunaakxgygjfqrzpyoz.jpg,00120931230fa.jpg,sunaakxgygjfqrzpyoz.jpg,0,38,58,58
59,59,3.0,,x,0.6460000000000008,0.6460000000000008,,1.0,Place,00835940307fa_sunaijsqpvodplbwxkf.jpg,00835940307fa.jpg,sunaijsqpvodplbwxkf.jpg,<,/data/su,,,,,,,,1,1570972973.7403002,1570972970.726,34,9.0,Presentation,00093931230fa_sunaahwnmtqsrhocysw.jpg,00093931230fa.jpg,sunaahwnmtqsrhocysw.jpg,0,39,59,59
60,60,,Novel_Cued_Cat,,,,Place,,Place,,,,,/data/su,,0.0,,sunagjzcrjvmxzqzljx.jpg,,,,1,1570972980.6929998,1570972978.7116,34,0.0,Memory,,,,0,120,60,60
61,61,,Novel_Uncued_Cat,,,,Face,,Place,,,,,/data/su,2.0,1.26,,00125931230fa.jpg,,,,1,1570972983.7085,1570972981.6958,34,1.0,Memory,,,,0,121,61,61
62,62,,Novel_Cued_Cat,,,,Place,,Place,,,,,/data/su,2.0,1.494,,sunaejnvnpltdmhbcsi.jpg,,,,1,1570972986.7124002,1570972984.7273002,34,2.0,Memory,,,,0,122,62,62
63,63,,Side,,,,Face,,Place,,,,,/data/su,3.0,1.1420000000000001,,00089931230fa.jpg,,,,1,1570972989.7285,1570972987.7144,34,3.0,Memory,,,,0,123,63,63
64,64,,Novel_Uncued_Cat,,,,Face,,Place,,,,,/data/su,4.0,1.526,,00889960530fa.jpg,,,,1,1570972992.7295,1570972990.7332,34,4.0,Memory,,,,0,124,64,64
65,65,,Novel_Uncued_Cat,,,,Face,,Place,,,,,/data/su,3.0,0.976,,00728941205fa.jpg,,,,1,1570972995.7467,1570972993.7327,34,5.0,Memory,,,,0,125,65,65
66,66,,Side,,,,Face,,Place,,,,,/data/su,3.0,1.028,,00727941205fa.jpg,,,,1,1570972998.7632,1570972996.7516,34,6.0,Memory,,,,0,126,66,66
67,67,,Full,,,,Place,,Place,,,,,/data/su,4.0,1.054,,sunagmhildamktmqjss.jpg,,,,1,1570973001.7717,1570972999.7819002,34,7.0,Memory,,,,0,127,67,67
68,68,,None,,,,Face,,Place,,,,,/data/su,1.0,1.5,,00839940307fa.jpg,,,,1,1570973004.7843,1570973002.7691002,34,8.0,Memory,,,,0,128,68,68
69,69,,None,,,,Face,,Place,,,,,/data/su,2.0,0.892,,00961960627fa.jpg,,,,1,1570973007.8016,1570973005.7872,34,9.0,Memory,,,,0,129,69,69
70,70,,Full,,,,Place,,Place,,,,,/data/su,3.0,1.128,,sunaeisnjeetzmkbuad.jpg,,,,1,1570973010.8178,1570973008.8045,34,10.0,Memory,,,,0,130,70,70
71,71,,Novel_Uncued_Cat,,,,Face,,Place,,,,,/data/su,2.0,1.446,,00784941205fb.jpg,,,,1,1570973013.8241,1570973011.8224,34,11.0,Memory,,,,0,131,71,71
72,72,,Category,,,,Place,,Place,,,,,/data/su,1.0,1.4380000000000002,,sunabxmguapjekttvwm.jpg,,,,1,1570973016.8270001,1570973014.8244002,34,12.0,Memory,,,,0,132,72,72
73,73,,Novel_Uncued_Cat,,,,Face,,Place,,,,,/data/su,2.0,1.054,,00976960627fa.jpg,,,,1,1570973019.8402002,1570973017.824,34,13.0,Memory,,,,0,133,73,73
74,74,,None,,,,Face,,Place,,,,,/data/su,3.0,1.66,,00093931230fa.jpg,,,,1,1570973022.8554,1570973020.8427,34,14.0,Memory,,,,0,134,74,74
75,75,,Side,,,,Face,,Place,,,,,/data/su,2.0,0.845,,00786941205fa.jpg,,,,1,1570973025.8612,1570973023.8595002,34,15.0,Memory,,,,0,135,75,75
76,76,,Novel_Uncued_Cat,,,,Face,,Place,,,,,/data/su,2.0,0.953,,00815941205fa.jpg,,,,1,1570973028.8739998,1570973026.8611002,34,16.0,Memory,,,,0,136,76,76
77,77,,Novel_Cued_Cat,,,,Place,,Place,,,,,/data/su,3.0,1.306,,sunaalltyvjhbzhkmvg.jpg,,,,1,1570973031.8774002,1570973029.8783002,34,17.0,Memory,,,,0,137,77,77
78,78,,Novel_Cued_Cat,,,,Place,,Place,,,,,/data/su,4.0,1.21,,sunagpancjmxqfazssf.jpg,,,,1,1570973034.8922,1570973032.8925002,34,18.0,Memory,,,,0,138,78,78
79,79,,Novel_Uncued_Cat,,,,Face,,Place,,,,,/data/su,2.0,1.045,,00789960620fa.jpg,,,,1,1570973037.8960001,1570973035.8978,34,19.0,Memory,,,,0,139,79,79
80,80,,Full,,,,Place,,Place,,,,,/data/su,2.0,0.852,,sunabzjxlmkwnwzimua.jpg,,,,1,1570973040.9113002,1570973038.8977,34,20.0,Memory,,,,0,140,80,80
81,81,,Novel_Cued_Cat,,,,Place,,Place,,,,,/data/su,2.0,1.595,,sunaletopenvvozhpxc.jpg,,,,1,1570973043.9155002,1570973041.9160001,34,21.0,Memory,,,,0,141,81,81
82,82,,Category,,,,Place,,Place,,,,,/data/su,2.0,1.008,,sunaipyohrqlwngaqif.jpg,,,,1,1570973046.9308002,1570973044.9163,34,22.0,Memory,,,,0,142,82,82
83,83,,Category,,,,Place,,Place,,,,,/data/su,2.0,0.69,,sunaahwnmtqsrhocysw.jpg,,,,1,1570973049.947,1570973047.9343002,34,23.0,Memory,,,,0,143,83,83
84,84,,Novel_Cued_Cat,,,,Place,,Place,,,,,/data/su,2.0,0.838,,sunahiphsekjihkafsl.jpg,,,,1,1570973052.9513,1570973050.9517,34,24.0,Memory,,,,0,144,84,84
85,85,,Full,,,,Place,,Place,,,,,/data/su,4.0,1.5930000000000002,,sunaagcpoejbuzyvddd.jpg,,,,1,1570973055.9536002,1570973053.9528,34,25.0,Memory,,,,0,145,85,85
86,86,,Category,,,,Place,,Place,,,,,/data/su,4.0,0.9359999999999999,,sunawotxrevnqvamsfp.jpg,,,,1,1570973058.9495,1570973056.9538002,34,26.0,Memory,,,,0,146,86,86
87,87,,Novel_Cued_Cat,,,,Place,,Place,,,,,/data/su,2.0,1.3880000000000001,,sunaatpkocdkocwxpkb.jpg,,,,1,1570973061.9521,1570973059.9549,34,27.0,Memory,,,,0,147,87,87
88,88,,Novel_Cued_Cat,,,,Place,,Place,,,,,/data/su,4.0,1.569,,sunbbhqyyzmsxhsbjmp.jpg,,,,1,1570973064.9729998,1570973062.9554,34,28.0,Memory,,,,0,148,88,88
89,89,,Novel_Cued_Cat,,,,Place,,Place,,,,,/data/su,2.0,1.15,,sunaiycurtqsfkvcaso.jpg,,,,1,1570973067.9774,1570973065.9734,34,29.0,Memory,,,,0,149,89,89
90,90,,Novel_Uncued_Cat,,,,Face,,Place,,,,,/data/su,2.0,1.222,,00147931230fb.jpg,,,,1,1570973070.9870002,1570973068.9746,34,30.0,Memory,,,,0,150,90,90
91,91,,Novel_Cued_Cat,,,,Place,,Place,,,,,/data/su,1.0,1.3769999999999998,,sunabxsuqbleluwczoy.jpg,,,,1,1570973073.9917002,1570973071.9918,34,31.0,Memory,,,,0,151,91,91
92,92,,Novel_Uncued_Cat,,,,Face,,Place,,,,,/data/su,2.0,1.1840000000000002,,00859940307fa.jpg,,,,1,1570973076.9956,1570973074.9941,34,32.0,Memory,,,,0,152,92,92
93,93,,None,,,,Face,,Place,,,,,/data/su,3.0,0.9359999999999999,,00902960530fa.jpg,,,,1,1570973080.0115,1570973077.9940002,34,33.0,Memory,,,,0,153,93,93
94,94,,Category,,,,Place,,Place,,,,,/data/su,2.0,1.148,,sunanaacmmosxrfwmvl.jpg,,,,1,1570973083.028,1570973081.0251,34,34.0,Memory,,,,0,154,94,94
95,95,,Side,,,,Face,,Place,,,,,/data/su,2.0,1.1,,00479940519fa.jpg,,,,1,1570973086.0252,1570973084.0292,34,35.0,Memory,,,,0,155,95,95
96,96,,Side,,,,Face,,Place,,,,,/data/su,2.0,1.045,,00498960627fa.jpg,,,,1,1570973089.0267,1570973087.0304,34,36.0,Memory,,,,0,156,96,96
97,97,,Full,,,,Place,,Place,,,,,/data/su,2.0,1.237,,sunabxsbfwjccqxxzxq.jpg,,,,1,1570973092.0294,1570973090.0315,34,37.0,Memory,,,,0,157,97,97
98,98,,None,,,,Face,,Place,,,,,/data/su,2.0,0.754,,00316940422fa.jpg,,,,1,1570973095.0302,1570973093.0326002,34,38.0,Memory,,,,0,158,98,98
99,99,,Novel_Uncued_Cat,,,,Face,,Place,,,,,/data/su,3.0,1.652,,00481940519fa.jpg,,,,1,1570973098.0284002,1570973096.0332,34,39.0,Memory,,,,0,159,99,99
100,100,1.0,,o,1.1611999999999991,1.1611999999999991,,0.0,Face,00197940128fa_sunaaylzyqlqrsmfwif.jpg,00197940128fa.jpg,sunaaylzyqlqrsmfwif.jpg,<,/data/su,,,,,,,,2,1570973222.1225002,1570973219.1078,34,0.0,Presentation,00098931230fa_sunaajpqmulidejvjsr.jpg,00098931230fa.jpg,sunaajpqmulidejvjsr.jpg,0,10,100,100
101,101,1.0,,o,0.7745999999999995,0.7745999999999995,,1.0,Face,00598940928fa_sunacxeheuiigkcgquf.jpg,00598940928fa.jpg,sunacxeheuiigkcgquf.jpg,<,/data/su,,,,,,,,2,1570973227.3411,1570973224.3267,34,1.0,Presentation,00138931230fa_sunaapfaivxqoynnwwp.jpg,00138931230fa.jpg,sunaapfaivxqoynnwwp.jpg,0,11,101,101
102,102,3.0,,x,0.7242999999999995,0.7242999999999995,,1.0,Face,00799941205fa_sunagutjvdvnhxejerz.jpg,00799941205fa.jpg,sunagutjvdvnhxejerz.jpg,<,/data/su,,,,,,,,2,1570973232.1593,1570973229.1444,34,2.0,Presentation,00705960530fa_sunaduslxfzlbxlllnz.jpg,00705960530fa.jpg,sunaduslxfzlbxlllnz.jpg,0,12,102,102
103,103,3.0,,x,0.7242000000000033,0.7242000000000033,,1.0,Face,00108960530fa_sunaajtnvzzpsjdzres.jpg,00108960530fa.jpg,sunaajtnvzzpsjdzres.jpg,<,/data/su,,,,,,,,2,1570973236.9274,1570973233.9126,34,3.0,Presentation,00914960620fa_sunaozisvwfbmlkfhzv.jpg,00914960620fa.jpg,sunaozisvwfbmlkfhzv.jpg,0,13,103,103
104,104,3.0,,o,0.7477999999999979,0.7477999999999979,,1.0,Face,00507940519fa_sunacacflqoyxhsqzhe.jpg,00507940519fa.jpg,sunacacflqoyxhsqzhe.jpg,<,/data/su,,,,,,,,2,1570973241.6958,1570973238.6808,34,4.0,Presentation,00999960627fa_sunbvbrvgbpanfrawft.jpg,00999960627fa.jpg,sunbvbrvgbpanfrawft.jpg,0,14,104,104
105,105,3.0,,x,0.6905000000000001,0.6905000000000001,,1.0,Face,00773960620fa_sunafvsxtzaizojicxx.jpg,00773960620fa.jpg,sunafvsxtzaizojicxx.jpg,<,/data/su,,,,,,,,2,1570973246.4971,1570973243.4829,34,5.0,Presentation,00903960620fa_sunanainkqdvktzoxyl.jpg,00903960620fa.jpg,sunanainkqdvktzoxyl.jpg,0,15,105,105
106,106,3.0,,o,1.051400000000001,1.051400000000001,,1.0,Face,00676941121fa_sunadpnqovzckyikrjo.jpg,00676941121fa.jpg,sunadpnqovzckyikrjo.jpg,<,/data/su,,,,,,,,2,1570973251.2322,1570973248.2179,34,6.0,Presentation,00145931230fb_sunaatjesvdupctftmn.jpg,00145931230fb.jpg,sunaatjesvdupctftmn.jpg,0,16,106,106
107,107,3.0,,x,0.6492999999999967,0.6492999999999967,,1.0,Face,00969960627fa_sunbaoizrfijvhpnnjn.jpg,00969960627fa.jpg,sunbaoizrfijvhpnnjn.jpg,<,/data/su,,,,,,,,2,1570973256.6674,1570973253.6495,34,7.0,Presentation,00694941121fa_sunadrmfzmstgdjdcod.jpg,00694941121fa.jpg,sunadrmfzmstgdjdcod.jpg,0,17,107,107
108,108,1.0,,o,0.4754999999999967,0.4754999999999967,,1.0,Face,00126931230fb_sunaamdjwemxpmmtypi.jpg,00126931230fb.jpg,sunaamdjwemxpmmtypi.jpg,<,/data/su,,,,,,,,2,1570973261.3689,1570973258.3546,34,8.0,Presentation,00818940307fa_sunahpblecxtmuzkmxb.jpg,00818940307fa.jpg,sunahpblecxtmuzkmxb.jpg,0,18,108,108
109,109,1.0,,o,0.8137000000000043,0.8137000000000043,,1.0,Face,00871940307_sunajrujcsdxmfbssmc.jpg,00871940307.jpg,sunajrujcsdxmfbssmc.jpg,<,/data/su,,,,,,,,2,1570973265.8869,1570973262.8724,34,9.0,Presentation,00909960530_sunaobtizabegtwfwul.jpg,00909960530.jpg,sunaobtizabegtwfwul.jpg,0,19,109,109
110,110,,Category,,,,Face,,Face,,,,,/data/su,2.0,1.74,,00694941121fa.jpg,,,,2,1570973271.7379,1570973269.7548,34,0.0,Memory,,,,0,200,110,110
111,111,,Side,,,,Place,,Face,,,,,/data/su,3.0,1.273,,sunagutjvdvnhxejerz.jpg,,,,2,1570973274.7393,1570973272.7426,34,1.0,Memory,,,,0,201,111,111
112,112,,Category,,,,Face,,Face,,,,,/data/su,2.0,0.977,,00999960627fa.jpg,,,,2,1570973277.742,1570973275.7436,34,2.0,Memory,,,,0,202,112,112
113,113,,Side,,,,Place,,Face,,,,,/data/su,3.0,0.941,,sunaajtnvzzpsjdzres.jpg,,,,2,1570973280.7445002,1570973278.7439,34,3.0,Memory,,,,0,203,113,113
114,114,,Category,,,,Face,,Face,,,,,/data/su,2.0,0.7490000000000001,,00903960620fa.jpg,,,,2,1570973283.7605,1570973281.746,34,4.0,Memory,,,,0,204,114,114
115,115,,Category,,,,Face,,Face,,,,,/data/su,2.0,0.937,,00705960530fa.jpg,,,,2,1570973286.7758,1570973284.7631,34,5.0,Memory,,,,0,205,115,115
116,116,,Novel_Uncued_Cat,,,,Place,,Face,,,,,/data/su,2.0,1.095,,sunbpvgllfdejxcpjqp.jpg,,,,2,1570973289.7771,1570973287.7803,34,6.0,Memory,,,,0,206,116,116
117,117,,None,,,,Place,,Face,,,,,/data/su,3.0,0.812,,sunaduslxfzlbxlllnz.jpg,,,,2,1570973292.7945,1570973290.7824,34,7.0,Memory,,,,0,207,117,117
118,118,,Novel_Cued_Cat,,,,Face,,Face,,,,,/data/su,3.0,0.7859999999999999,,00838940307fa.jpg,,,,2,1570973295.7953,1570973293.7987,34,8.0,Memory,,,,0,208,118,118
119,119,,Side,,,,Place,,Face,,,,,/data/su,4.0,0.975,,sunaaylzyqlqrsmfwif.jpg,,,,2,1570973298.813,1570973296.8005002,34,9.0,Memory,,,,0,209,119,119
120,120,,Novel_Uncued_Cat,,,,Place,,Face,,,,,/data/su,3.0,0.956,,sunasbbntuiheekqyaq.jpg,,,,2,1570973301.8143,1570973299.8181,34,10.0,Memory,,,,0,210,120,120
121,121,,Full,,,,Face,,Face,,,,,/data/su,3.0,0.9229999999999999,,00598940928fa.jpg,,,,2,1570973304.8157,1570973302.8191,34,11.0,Memory,,,,0,211,121,121
122,122,,Novel_Uncued_Cat,,,,Place,,Face,,,,,/data/su,3.0,1.127,,sunabmbnddafmywtjjj.jpg,,,,2,1570973307.8326,1570973305.8205,34,12.0,Memory,,,,0,212,122,122
123,123,,Novel_Uncued_Cat,,,,Place,,Face,,,,,/data/su,2.0,1.514,,sunbesrwkdsffeogeqq.jpg,,,,2,1570973310.8398,1570973308.8373,34,13.0,Memory,,,,0,213,123,123
124,124,,None,,,,Place,,Face,,,,,/data/su,3.0,1.6969999999999998,,sunaapfaivxqoynnwwp.jpg,,,,2,1570973313.8406,1570973311.8385,34,14.0,Memory,,,,0,214,124,124
125,125,,Novel_Cued_Cat,,,,Face,,Face,,,,,/data/su,2.0,1.155,,00996960627fa.jpg,,,,2,1570973316.8527,1570973314.8397,34,15.0,Memory,,,,0,215,125,125
126,126,,Novel_Uncued_Cat,,,,Place,,Face,,,,,/data/su,,0.0,,sunabueyoajufbkraki.jpg,,,,2,1570973319.8526,1570973317.8569,34,16.0,Memory,,,,0,216,126,126
127,127,,Side,,,,Place,,Face,,,,,/data/su,,0.0,,sunacacflqoyxhsqzhe.jpg,,,,2,1570973322.8616002,1570973320.8579998,34,17.0,Memory,,,,0,217,127,127
128,128,,Novel_Cued_Cat,,,,Face,,Face,,,,,/data/su,2.0,0.9470000000000001,,00132931230fb.jpg,,,,2,1570973325.8719,1570973323.8721,34,18.0,Memory,,,,0,218,128,128
129,129,,Category,,,,Face,,Face,,,,,/data/su,3.0,0.941,,00138931230fa.jpg,,,,2,1570973328.8884,1570973326.8899,34,19.0,Memory,,,,0,219,129,129
130,130,,Novel_Uncued_Cat,,,,Place,,Face,,,,,/data/su,3.0,0.875,,sunabzuqsrgcsonqlkz.jpg,,,,2,1570973331.8911002,1570973329.8954,34,20.0,Memory,,,,0,220,130,130
131,131,,Novel_Cued_Cat,,,,Face,,Face,,,,,/data/su,2.0,0.7190000000000001,,00505960627fa.jpg,,,,2,1570973334.8921,1570973332.8948002,34,21.0,Memory,,,,0,221,131,131
132,132,,Novel_Cued_Cat,,,,Face,,Face,,,,,/data/su,2.0,0.711,,00306940422fa.jpg,,,,2,1570973337.9089,1570973335.8968,34,22.0,Memory,,,,0,222,132,132
133,133,,Novel_Cued_Cat,,,,Face,,Face,,,,,/data/su,3.0,0.96,,00265940128fb.jpg,,,,2,1570973340.9112,1570973338.9133,34,23.0,Memory,,,,0,223,133,133
134,134,,Side,,,,Place,,Face,,,,,/data/su,4.0,1.4609999999999999,,sunacxeheuiigkcgquf.jpg,,,,2,1570973343.9189,1570973341.9286,34,24.0,Memory,,,,0,224,134,134
135,135,,Novel_Cued_Cat,,,,Face,,Face,,,,,/data/su,2.0,0.996,,00944960627fa.jpg,,,,2,1570973346.9346,1570973344.9291,34,25.0,Memory,,,,0,225,135,135
136,136,,None,,,,Place,,Face,,,,,/data/su,2.0,1.504,,sunanainkqdvktzoxyl.jpg,,,,2,1570973349.9504,1570973347.9336,34,26.0,Memory,,,,0,226,136,136
137,137,,Full,,,,Face,,Face,,,,,/data/su,3.0,1.073,,00197940128fa.jpg,,,,2,1570973352.964,1570973350.9645,34,27.0,Memory,,,,0,227,137,137
138,138,,Novel_Cued_Cat,,,,Face,,Face,,,,,/data/su,2.0,0.762,,00271940422fa.jpg,,,,2,1570973355.9808002,1570973353.9822,34,28.0,Memory,,,,0,228,138,138
139,139,,Full,,,,Face,,Face,,,,,/data/su,2.0,0.945,,00108960530fa.jpg,,,,2,1570973358.9868,1570973356.9862,34,29.0,Memory,,,,0,229,139,139
140,140,,None,,,,Place,,Face,,,,,/data/su,2.0,1.3219999999999998,,sunadrmfzmstgdjdcod.jpg,,,,2,1570973361.9833,1570973359.9880002,34,30.0,Memory,,,,0,230,140,140
141,141,,Novel_Cued_Cat,,,,Face,,Face,,,,,/data/su,2.0,0.787,,00982960627fa.jpg,,,,2,1570973364.9853,1570973362.9889998,34,31.0,Memory,,,,0,231,141,141
142,142,,Full,,,,Face,,Face,,,,,/data/su,2.0,0.895,,00507940519fa.jpg,,,,2,1570973367.9906,1570973365.9897,34,32.0,Memory,,,,0,232,142,142
143,143,,Novel_Uncued_Cat,,,,Place,,Face,,,,,/data/su,3.0,0.948,,sunaiozxhxgtfrmoagh.jpg,,,,2,1570973371.0029,1570973368.9895,34,33.0,Memory,,,,0,233,143,143
144,144,,Novel_Uncued_Cat,,,,Place,,Face,,,,,/data/su,2.0,0.924,,sunaanjcbzdvtvblsdy.jpg,,,,2,1570973374.0049,1570973372.0213,34,34.0,Memory,,,,0,234,144,144
145,145,,Novel_Cued_Cat,,,,Face,,Face,,,,,/data/su,2.0,0.653,,00630940928fa.jpg,,,,2,1570973377.0056,1570973375.0091,34,35.0,Memory,,,,0,235,145,145
146,146,,Full,,,,Face,,Face,,,,,/data/su,2.0,0.912,,00799941205fa.jpg,,,,2,1570973380.0105,1570973378.0101,34,36.0,Memory,,,,0,236,146,146
147,147,,None,,,,Place,,Face,,,,,/data/su,2.0,1.19,,sunbvbrvgbpanfrawft.jpg,,,,2,1570973383.0233002,1570973381.0243,34,37.0,Memory,,,,0,237,147,147
148,148,,Novel_Uncued_Cat,,,,Place,,Face,,,,,/data/su,2.0,0.68,,sunabkmdplkdbvxriff.jpg,,,,2,1570973386.0329,1570973384.042,34,38.0,Memory,,,,0,238,148,148
149,149,,Novel_Uncued_Cat,,,,Place,,Face,,,,,/data/su,3.0,0.62,,sunaczwgyukesaajxnx.jpg,,,,2,1570973389.0413,1570973387.0427,34,39.0,Memory,,,,0,239,149,149
150,150,1.0,,o,1.3477999999999994,1.3477999999999994,,1.0,Place,00723941201fa_sunaedtgwjvvziytspa.jpg,00723941201fa.jpg,sunaedtgwjvvziytspa.jpg,>,/data/su,,,,,,,,3,1570973502.6452,1570973499.6302,34,0.0,Presentation,00209940128fb_sunabaergayifsgacxt.jpg,00209940128fb.jpg,sunabaergayifsgacxt.jpg,0,0,150,150
151,151,3.0,,o,0.7221999999999991,0.7221999999999991,,1.0,Place,00869940307fa_sunajoveqhiprwqgoco.jpg,00869940307fa.jpg,sunajoveqhiprwqgoco.jpg,>,/data/su,,,,,,,,3,1570973508.0469,1570973505.033,34,1.0,Presentation,00218940128fa_sunabbwggenhfbftyvi.jpg,00218940128fa.jpg,sunabbwggenhfbftyvi.jpg,0,1,151,151
152,152,1.0,,o,0.7460000000000022,0.7460000000000022,,1.0,Place,00768941205fa_sunafkmnlytenlsywia.jpg,00768941205fa.jpg,sunafkmnlytenlsywia.jpg,>,/data/su,,,,,,,,3,1570973512.8151,1570973509.8013,34,2.0,Presentation,00077931230fb_sunaafgqutfaishsxyu.jpg,00077931230fb.jpg,sunaafgqutfaishsxyu.jpg,0,2,152,152
153,153,3.0,,x,0.9044999999999987,0.9044999999999987,,1.0,Place,00828940307fa_sunahuynahneraqftyz.jpg,00828940307fa.jpg,sunahuynahneraqftyz.jpg,>,/data/su,,,,,,,,3,1570973517.6165,1570973514.6020002,34,3.0,Presentation,00746941201fa_sunaetydippjxikifsb.jpg,00746941201fa.jpg,sunaetydippjxikifsb.jpg,0,3,153,153
154,154,1.0,,o,0.9848,0.9848,,1.0,Place,00938960627fa_sunaqyylsngywqzwfmx.jpg,00938960627fa.jpg,sunaqyylsngywqzwfmx.jpg,>,/data/su,,,,,,,,3,1570973522.5683,1570973519.5533,34,4.0,Presentation,00783941205fa_sunagjeesomrwjsfqie.jpg,00783941205fa.jpg,sunagjeesomrwjsfqie.jpg,0,4,154,154
155,155,1.0,,o,0.8862000000000023,0.8862000000000023,,1.0,Place,00770941201fa_sunaflojskatpeqyzqp.jpg,00770941201fa.jpg,sunaflojskatpeqyzqp.jpg,>,/data/su,,,,,,,,3,1570973527.6029,1570973524.5886002,34,5.0,Presentation,00076931230fa_sunaafewhewbxmjiurz.jpg,00076931230fa.jpg,sunaafewhewbxmjiurz.jpg,0,5,155,155
156,156,1.0,,o,0.982600000000005,0.982600000000005,,1.0,Place,00589940928fa_sunacwggadqsfpovdjv.jpg,00589940928fa.jpg,sunacwggadqsfpovdjv.jpg,>,/data/su,,,,,,,,3,1570973532.5382,1570973529.5236,34,6.0,Presentation,00819940307fa_sunahqldjibofgsfdgb.jpg,00819940307fa.jpg,sunahqldjibofgsfdgb.jpg,0,6,156,156
157,157,1.0,,o,1.4279999999999973,1.4279999999999973,,0.0,Place,00979960627fa_sunbdycacjfaujxitbw.jpg,00979960627fa.jpg,sunbdycacjfaujxitbw.jpg,>,/data/su,,,,,,,,3,1570973537.573,1570973534.5588,34,7.0,Presentation,00745941205fa_sunaeouogqolxvggaoq.jpg,00745941205fa.jpg,sunaeouogqolxvggaoq.jpg,0,7,157,157
158,158,1.0,,o,0.9508000000000012,0.9508000000000012,,0.0,Place,00609940928fa_sunacycdoztxoluxjyk.jpg,00609940928fa.jpg,sunacycdoztxoluxjyk.jpg,>,/data/su,,,,,,,,3,1570973543.0583,1570973540.044,34,8.0,Presentation,00129931230fb_sunaamsdyakblkfoydx.jpg,00129931230fb.jpg,sunaamsdyakblkfoydx.jpg,0,8,158,158
159,159,1.0,,o,0.7411999999999992,0.7411999999999992,,1.0,Place,00574940928fa_sunacvbrcejzwmcgnoq.jpg,00574940928fa.jpg,sunacvbrcejzwmcgnoq.jpg,>,/data/su,,,,,,,,3,1570973548.0597,1570973545.0464,34,9.0,Presentation,00136931230fb_sunaanptmsknhirrzed.jpg,00136931230fb.jpg,sunaanptmsknhirrzed.jpg,0,9,159,159
160,160,,Side,,,,Face,,Place,,,,,/data/su,2.0,1.3359999999999999,,00768941205fa.jpg,,,,3,1570973554.2786,1570973552.311,34,0.0,Memory,,,,0,160,160,160
161,161,,Novel_Cued_Cat,,,,Place,,Place,,,,,/data/su,2.0,1.07,,sunaydywdmvlfddbxbk.jpg,,,,3,1570973557.2949,1570973555.2828,34,1.0,Memory,,,,0,161,161,161
162,162,,Novel_Cued_Cat,,,,Place,,Place,,,,,/data/su,3.0,1.2209999999999999,,sunaibnpvhkdpdnzcnz.jpg,,,,3,1570973560.3044,1570973558.3132,34,2.0,Memory,,,,0,162,162,162
163,163,,Category,,,,Place,,Place,,,,,/data/su,3.0,0.867,,sunaeouogqolxvggaoq.jpg,,,,3,1570973563.3184,1570973561.3141,34,3.0,Memory,,,,0,163,163,163
164,164,,Novel_Uncued_Cat,,,,Face,,Place,,,,,/data/su,2.0,0.732,,00970960627fa.jpg,,,,3,1570973566.3315,1570973564.3177,34,4.0,Memory,,,,0,164,164,164
165,165,,Side,,,,Face,,Place,,,,,/data/su,3.0,1.028,,00979960627fa.jpg,,,,3,1570973569.3370001,1570973567.3357,34,5.0,Memory,,,,0,165,165,165
166,166,,Full,,,,Place,,Place,,,,,/data/su,3.0,0.938,,sunbdycacjfaujxitbw.jpg,,,,3,1570973572.3518,1570973570.3370001,34,6.0,Memory,,,,0,166,166,166
167,167,,Novel_Cued_Cat,,,,Place,,Place,,,,,/data/su,4.0,1.561,,sunabkngeblodihjvbk.jpg,,,,3,1570973575.3556,1570973573.3541,34,7.0,Memory,,,,0,167,167,167
168,168,,Novel_Uncued_Cat,,,,Face,,Place,,,,,/data/su,2.0,0.883,,00834940307fa.jpg,,,,3,1570973578.3694,1570973576.3561,34,8.0,Memory,,,,0,168,168,168
169,169,,Novel_Uncued_Cat,,,,Face,,Place,,,,,/data/su,,0.0,,00675941121fa.jpg,,,,3,1570973581.3691,1570973579.3725,34,9.0,Memory,,,,0,169,169,169
170,170,,None,,,,Face,,Place,,,,,/data/su,,0.0,,00218940128fa.jpg,,,,3,1570973584.3694,1570973582.3743,34,10.0,Memory,,,,0,170,170,170
171,171,,Category,,,,Place,,Place,,,,,/data/su,,0.0,,sunahqldjibofgsfdgb.jpg,,,,3,1570973587.3748,1570973585.3757,34,11.0,Memory,,,,0,171,171,171
172,172,,Side,,,,Face,,Place,,,,,/data/su,2.0,0.992,,00609940928fa.jpg,,,,3,1570973590.39,1570973588.3758,34,12.0,Memory,,,,0,172,172,172
173,173,,Full,,,,Place,,Place,,,,,/data/su,2.0,0.754,,sunajoveqhiprwqgoco.jpg,,,,3,1570973593.3896,1570973591.3942,34,13.0,Memory,,,,0,173,173,173
174,174,,None,,,,Face,,Place,,,,,/data/su,2.0,0.6709999999999999,,00745941205fa.jpg,,,,3,1570973596.3925,1570973594.3943,34,14.0,Memory,,,,0,174,174,174
175,175,,Novel_Uncued_Cat,,,,Face,,Place,,,,,/data/su,3.0,1.425,,00965960627fa.jpg,,,,3,1570973599.3969,1570973597.3955,34,15.0,Memory,,,,0,175,175,175
176,176,,Novel_Uncued_Cat,,,,Face,,Place,,,,,/data/su,3.0,1.025,,00266940128fb.jpg,,,,3,1570973602.4135,1570973600.3965,34,16.0,Memory,,,,0,176,176,176
177,177,,Novel_Uncued_Cat,,,,Face,,Place,,,,,/data/su,3.0,1.32,,00559940519fa.jpg,,,,3,1570973605.4148,1570973603.4145,34,17.0,Memory,,,,0,177,177,177
178,178,,Category,,,,Place,,Place,,,,,/data/su,4.0,1.234,,sunabbwggenhfbftyvi.jpg,,,,3,1570973608.4191,1570973606.4157,34,18.0,Memory,,,,0,178,178,178
179,179,,None,,,,Face,,Place,,,,,/data/su,2.0,1.129,,00209940128fb.jpg,,,,3,1570973611.4294,1570973609.4157,34,19.0,Memory,,,,0,179,179,179
180,180,,Novel_Uncued_Cat,,,,Face,,Place,,,,,/data/su,2.0,1.578,,00149931230fa.jpg,,,,3,1570973614.4369,1570973612.4333,34,20.0,Memory,,,,0,180,180,180
181,181,,Side,,,,Face,,Place,,,,,/data/su,2.0,0.7979999999999999,,00589940928fa.jpg,,,,3,1570973617.4481,1570973615.435,34,21.0,Memory,,,,0,181,181,181
182,182,,Novel_Cued_Cat,,,,Place,,Place,,,,,/data/su,2.0,1.62,,sunacdnquypmsshhsbk.jpg,,,,3,1570973620.4568,1570973618.4525,34,22.0,Memory,,,,0,182,182,182
183,183,,Side,,,,Face,,Place,,,,,/data/su,2.0,0.856,,00869940307fa.jpg,,,,3,1570973623.4722002,1570973621.4529,34,23.0,Memory,,,,0,183,183,183
184,184,,None,,,,Face,,Place,,,,,/data/su,2.0,0.973,,00819940307fa.jpg,,,,3,1570973626.4870002,1570973624.4709,34,24.0,Memory,,,,0,184,184,184
185,185,,Novel_Cued_Cat,,,,Place,,Place,,,,,/data/su,2.0,1.426,,sunacjkmnpawfzbyvae.jpg,,,,3,1570973629.4922,1570973627.4889,34,25.0,Memory,,,,0,185,185,185
186,186,,Novel_Cued_Cat,,,,Place,,Place,,,,,/data/su,2.0,1.214,,sunbasypfgzjtomktmu.jpg,,,,3,1570973632.508,1570973630.49,34,26.0,Memory,,,,0,186,186,186
187,187,,Novel_Cued_Cat,,,,Place,,Place,,,,,/data/su,3.0,0.914,,sunadoxcchtmsxewsau.jpg,,,,3,1570973635.5214,1570973633.5073,34,27.0,Memory,,,,0,187,187,187
188,188,,Novel_Cued_Cat,,,,Place,,Place,,,,,/data/su,,0.0,,sunafgzgbisbopcyslr.jpg,,,,3,1570973638.5377,1570973636.5385,34,28.0,Memory,,,,0,188,188,188
189,189,,Category,,,,Place,,Place,,,,,/data/su,,0.0,,sunabaergayifsgacxt.jpg,,,,3,1570973641.5467,1570973639.5422,34,29.0,Memory,,,,0,189,189,189
190,190,,Novel_Cued_Cat,,,,Place,,Place,,,,,/data/su,2.0,1.053,,sunaeuvjbmdpknaqqaj.jpg,,,,3,1570973644.5598,1570973642.5429,34,30.0,Memory,,,,0,190,190,190
191,191,,Novel_Uncued_Cat,,,,Face,,Place,,,,,/data/su,3.0,1.083,,00540940519fa.jpg,,,,3,1570973647.562,1570973645.5625,34,31.0,Memory,,,,0,191,191,191
192,192,,Category,,,,Place,,Place,,,,,/data/su,2.0,1.182,,sunaafgqutfaishsxyu.jpg,,,,3,1570973650.5778,1570973648.5622,34,32.0,Memory,,,,0,192,192,192
193,193,,Full,,,,Place,,Place,,,,,/data/su,2.0,0.7929999999999999,,sunacwggadqsfpovdjv.jpg,,,,3,1570973653.5798,1570973651.5809,34,33.0,Memory,,,,0,193,193,193
194,194,,None,,,,Face,,Place,,,,,/data/su,2.0,0.6759999999999999,,00077931230fb.jpg,,,,3,1570973656.5937,1570973654.5805,34,34.0,Memory,,,,0,194,194,194
195,195,,Full,,,,Place,,Place,,,,,/data/su,2.0,0.804,,sunafkmnlytenlsywia.jpg,,,,3,1570973659.5994,1570973657.5984,34,35.0,Memory,,,,0,195,195,195
196,196,,Novel_Uncued_Cat,,,,Face,,Place,,,,,/data/su,2.0,0.6559999999999999,,00749941201fa.jpg,,,,3,1570973662.6116,1570973660.6005,34,36.0,Memory,,,,0,196,196,196
197,197,,Full,,,,Place,,Place,,,,,/data/su,3.0,0.82,,sunacycdoztxoluxjyk.jpg,,,,3,1570973665.6132,1570973663.6172,34,37.0,Memory,,,,0,197,197,197
198,198,,Novel_Cued_Cat,,,,Place,,Place,,,,,/data/su,2.0,1.311,,sunaauglwmctnkxyird.jpg,,,,3,1570973668.6136,1570973666.6179998,34,38.0,Memory,,,,0,198,198,198
199,199,,Novel_Uncued_Cat,,,,Face,,Place,,,,,/data/su,,0.0,,00762941201fa.jpg,,,,3,1570973671.6156,1570973669.6191,34,39.0,Memory,,,,0,199,199,199
200,200,1.0,,o,1.4796999999999991,1.4796999999999991,,0.0,Face,00532960627fa_sunaccdtpgenvcbcbcf.jpg,00532960627fa.jpg,sunaccdtpgenvcbcbcf.jpg,<,/data/su,,,,,,,,4,1570973990.5245,1570973987.5099,34,0.0,Presentation,00880960530fa_sunakmnfgklupjijsgf.jpg,00880960530fa.jpg,sunakmnfgklupjijsgf.jpg,0,50,200,200
201,201,1.0,,o,0.8565000000000005,0.8565000000000005,,1.0,Face,00825940307fa_sunahrltmuwbiehihpe.jpg,00825940307fa.jpg,sunahrltmuwbiehihpe.jpg,<,/data/su,,,,,,,,4,1570973996.0595,1570973993.0451,34,1.0,Presentation,00242940128fa_sunabcuurugvxwparpk.jpg,00242940128fa.jpg,sunabcuurugvxwparpk.jpg,0,51,201,201
202,202,3.0,,x,0.8673000000000002,0.8673000000000002,,1.0,Face,00774941201fa_sunafvtpfczkzopbgue.jpg,00774941201fa.jpg,sunafvtpfczkzopbgue.jpg,<,/data/su,,,,,,,,4,1570974000.961,1570973997.9466,34,2.0,Presentation,01004960627fa_sunbwtlihsuptkrckid.jpg,01004960627fa.jpg,sunbwtlihsuptkrckid.jpg,0,52,202,202
203,203,3.0,,x,0.7569999999999979,0.7569999999999979,,1.0,Face,00892960530fa_sunalntxqqadigcletd.jpg,00892960530fa.jpg,sunalntxqqadigcletd.jpg,<,/data/su,,,,,,,,4,1570974005.8793,1570974002.8648,34,3.0,Presentation,00884960530fa_sunakodkcslgqhqlgwl.jpg,00884960530fa.jpg,sunakodkcslgqhqlgwl.jpg,0,53,203,203
204,204,3.0,,x,0.8671000000000006,0.8671000000000006,,1.0,Face,00239940128fa_sunabctlikybqabezjv.jpg,00239940128fa.jpg,sunabctlikybqabezjv.jpg,<,/data/su,,,,,,,,4,1570974010.681,1570974007.6668,34,4.0,Presentation,00829940307fa_sunahwgbqkqcrwprgvh.jpg,00829940307fa.jpg,sunahwgbqkqcrwprgvh.jpg,0,54,204,204
205,205,1.0,,o,1.5327999999999946,1.5327999999999946,,1.0,Face,00073931230fa_sunaafbmtoniaasysgu.jpg,00073931230fa.jpg,sunaafbmtoniaasysgu.jpg,<,/data/su,,,,,,,,4,1570974015.5993,1570974012.5844,34,5.0,Presentation,00989960627fa_sunbondbduabvijnmch.jpg,00989960627fa.jpg,sunbondbduabvijnmch.jpg,0,55,205,205
206,206,3.0,,x,0.8275999999999968,0.8275999999999968,,1.0,Face,00908960530fa_sunanwjjyqqwzqrqagd.jpg,00908960530fa.jpg,sunanwjjyqqwzqrqagd.jpg,<,/data/su,,,,,,,,4,1570974021.1844,1570974018.1696,34,6.0,Presentation,00955960627fb_sunauburywlkjszngcq.jpg,00955960627fb.jpg,sunauburywlkjszngcq.jpg,0,56,206,206
207,207,3.0,,x,0.9033000000000015,0.9033000000000015,,1.0,Face,00801941205fa_sunagvprlbprarvgdvj.jpg,00801941205fa.jpg,sunagvprlbprarvgdvj.jpg,<,/data/su,,,,,,,,4,1570974026.0526,1570974023.0388,34,7.0,Presentation,00071941031fa_sunaaexqbtdswxrqjvz.jpg,00071941031fa.jpg,sunaaexqbtdswxrqjvz.jpg,0,57,207,207
208,208,3.0,,o,0.919700000000006,0.919700000000006,,1.0,Face,00302940422fa_sunabtlfmiwtljmoues.jpg,00302940422fa.jpg,sunabtlfmiwtljmoues.jpg,<,/data/su,,,,,,,,4,1570974031.0043,1570974027.9902,34,8.0,Presentation,00990960627fa_sunbpflsdaxnddnwcqi.jpg,00990960627fa.jpg,sunbpflsdaxnddnwcqi.jpg,0,58,208,208
209,209,3.0,,x,0.8074999999999974,0.8074999999999974,,1.0,Face,00848940307fa_sunaivdylrawbmhryfp.jpg,00848940307fa.jpg,sunaivdylrawbmhryfp.jpg,<,/data/su,,,,,,,,4,1570974035.9725,1570974032.9575,34,9.0,Presentation,00198940128fb_sunaazezcsunmhttzxz.jpg,00198940128fb.jpg,sunaazezcsunmhttzxz.jpg,0,59,209,209
210,210,,Novel_Cued_Cat,,,,Face,,Face,,,,,/data/su,2.0,1.045,,00787941205fa.jpg,,,,4,1570974041.607,1570974039.6267,34,0.0,Memory,,,,0,360,210,210
211,211,,Novel_Cued_Cat,,,,Face,,Face,,,,,/data/su,2.0,0.736,,00065931230fb.jpg,,,,4,1570974044.623,1570974042.6118,34,1.0,Memory,,,,0,361,211,211
212,212,,Novel_Uncued_Cat,,,,Place,,Face,,,,,/data/su,4.0,1.113,,sunavhxgmgrqsaptynb.jpg,,,,4,1570974047.6255,1570974045.63,34,2.0,Memory,,,,0,362,212,212
213,213,,Category,,,,Face,,Face,,,,,/data/su,3.0,0.753,,00242940128fa.jpg,,,,4,1570974050.6305,1570974048.6294,34,3.0,Memory,,,,0,363,213,213
214,214,,Side,,,,Place,,Face,,,,,/data/su,2.0,1.44,,sunahrltmuwbiehihpe.jpg,,,,4,1570974053.6328,1570974051.6311,34,4.0,Memory,,,,0,364,214,214
215,215,,None,,,,Place,,Face,,,,,/data/su,3.0,0.8490000000000001,,sunakmnfgklupjijsgf.jpg,,,,4,1570974056.6446,1570974054.6316,34,5.0,Memory,,,,0,365,215,215
216,216,,Side,,,,Place,,Face,,,,,/data/su,2.0,1.087,,sunagvprlbprarvgdvj.jpg,,,,4,1570974059.6495,1570974057.6497,34,6.0,Memory,,,,0,366,216,216
217,217,,Category,,,,Face,,Face,,,,,/data/su,3.0,1.368,,01004960627fa.jpg,,,,4,1570974062.6662,1570974060.6516,34,7.0,Memory,,,,0,367,217,217
218,218,,None,,,,Place,,Face,,,,,/data/su,4.0,1.0170000000000001,,sunbondbduabvijnmch.jpg,,,,4,1570974065.6812,1570974063.6675,34,8.0,Memory,,,,0,368,218,218
219,219,,Novel_Cued_Cat,,,,Face,,Face,,,,,/data/su,3.0,0.8540000000000001,,00620940928fa.jpg,,,,4,1570974068.6984,1570974066.6853,34,9.0,Memory,,,,0,369,219,219
220,220,,Novel_Uncued_Cat,,,,Place,,Face,,,,,/data/su,2.0,0.997,,sunacypmnujalygkunp.jpg,,,,4,1570974071.7020001,1570974069.7026,34,10.0,Memory,,,,0,370,220,220
221,221,,Novel_Uncued_Cat,,,,Place,,Face,,,,,/data/su,3.0,0.9359999999999999,,sunadvithllcgmfxsrn.jpg,,,,4,1570974074.7161,1570974072.7043,34,11.0,Memory,,,,0,371,221,221
222,222,,Novel_Cued_Cat,,,,Face,,Face,,,,,/data/su,2.0,1.224,,00133931230fa.jpg,,,,4,1570974077.7215,1570974075.7226,34,12.0,Memory,,,,0,372,222,222
223,223,,None,,,,Place,,Face,,,,,/data/su,2.0,1.038,,sunaaexqbtdswxrqjvz.jpg,,,,4,1570974080.7361,1570974078.7228,34,13.0,Memory,,,,0,373,223,223
224,224,,Novel_Uncued_Cat,,,,Place,,Face,,,,,/data/su,2.0,0.787,,sunaajspcoepticvplv.jpg,,,,4,1570974083.7373,1570974081.7408,34,14.0,Memory,,,,0,374,224,224
225,225,,Novel_Cued_Cat,,,,Face,,Face,,,,,/data/su,2.0,0.958,,00681941121fa.jpg,,,,4,1570974086.74,1570974084.7411,34,15.0,Memory,,,,0,375,225,225
226,226,,Side,,,,Place,,Face,,,,,/data/su,2.0,1.3769999999999998,,sunalntxqqadigcletd.jpg,,,,4,1570974089.7464,1570974087.756,34,16.0,Memory,,,,0,376,226,226
227,227,,Full,,,,Face,,Face,,,,,/data/su,2.0,0.868,,00302940422fa.jpg,,,,4,1570974092.7593,1570974090.7569,34,17.0,Memory,,,,0,377,227,227
228,228,,Full,,,,Face,,Face,,,,,/data/su,2.0,1.195,,00239940128fa.jpg,,,,4,1570974095.7742,1570974093.7608,34,18.0,Memory,,,,0,378,228,228
229,229,,Novel_Cued_Cat,,,,Face,,Face,,,,,/data/su,2.0,0.72,,00957960627fa.jpg,,,,4,1570974098.7771,1570974096.7788,34,19.0,Memory,,,,0,379,229,229
230,230,,None,,,,Place,,Face,,,,,/data/su,3.0,0.94,,sunbwtlihsuptkrckid.jpg,,,,4,1570974101.7935,1570974099.7791,34,20.0,Memory,,,,0,380,230,230
231,231,,Side,,,,Place,,Face,,,,,/data/su,4.0,1.005,,sunabtlfmiwtljmoues.jpg,,,,4,1570974104.7997,1570974102.798,34,21.0,Memory,,,,0,381,231,231
232,232,,Novel_Cued_Cat,,,,Face,,Face,,,,,/data/su,2.0,0.83,,00270940422fb.jpg,,,,4,1570974107.8139,1570974105.7991,34,22.0,Memory,,,,0,382,232,232
233,233,,Side,,,,Place,,Face,,,,,/data/su,2.0,0.938,,sunabctlikybqabezjv.jpg,,,,4,1570974110.8167,1570974108.8162,34,23.0,Memory,,,,0,383,233,233
234,234,,Novel_Cued_Cat,,,,Face,,Face,,,,,/data/su,3.0,0.7659999999999999,,00719941201fa.jpg,,,,4,1570974113.8324,1570974111.8175,34,24.0,Memory,,,,0,384,234,234
235,235,,Novel_Uncued_Cat,,,,Place,,Face,,,,,/data/su,2.0,0.978,,sunagmwxxwymwojbvgi.jpg,,,,4,1570974116.8479,1570974114.8341,34,25.0,Memory,,,,0,385,235,235
236,236,,None,,,,Place,,Face,,,,,/data/su,2.0,0.8190000000000001,,sunabcuurugvxwparpk.jpg,,,,4,1570974119.8663,1570974117.8521,34,26.0,Memory,,,,0,386,236,236
237,237,,Category,,,,Face,,Face,,,,,/data/su,2.0,0.846,,00071941031fa.jpg,,,,4,1570974122.8716,1570974120.8702,34,27.0,Memory,,,,0,387,237,237
238,238,,Category,,,,Face,,Face,,,,,/data/su,3.0,0.5660000000000001,,00989960627fa.jpg,,,,4,1570974125.8669,1570974123.8705,34,28.0,Memory,,,,0,388,238,238
239,239,,Category,,,,Face,,Face,,,,,/data/su,,0.0,,00880960530fa.jpg,,,,4,1570974128.8753,1570974126.8724,34,29.0,Memory,,,,0,389,239,239
240,240,,Novel_Uncued_Cat,,,,Place,,Face,,,,,/data/su,,0.0,,sunagufzbeteqdjxais.jpg,,,,4,1570974131.8902,1570974129.8725,34,30.0,Memory,,,,0,390,240,240
241,241,,Novel_Cued_Cat,,,,Face,,Face,,,,,/data/su,2.0,1.115,,00797960620fa.jpg,,,,4,1570974134.9043,1570974132.8908,34,31.0,Memory,,,,0,391,241,241
242,242,,Full,,,,Face,,Face,,,,,/data/su,2.0,0.47600000000000003,,00825940307fa.jpg,,,,4,1570974137.9214,1570974135.9081,34,32.0,Memory,,,,0,392,242,242
243,243,,Full,,,,Face,,Face,,,,,/data/su,3.0,0.961,,00892960530fa.jpg,,,,4,1570974140.9234,1570974138.9255,34,33.0,Memory,,,,0,393,243,243
244,244,,Novel_Uncued_Cat,,,,Place,,Face,,,,,/data/su,2.0,1.127,,sunadqmjrhfjyuzyvdd.jpg,,,,4,1570974143.9393,1570974141.9265,34,34.0,Memory,,,,0,394,244,244
245,245,,Novel_Cued_Cat,,,,Face,,Face,,,,,/data/su,2.0,0.764,,00102931230fa.jpg,,,,4,1570974146.9471,1570974144.9453,34,35.0,Memory,,,,0,395,245,245
246,246,,Novel_Uncued_Cat,,,,Place,,Face,,,,,/data/su,4.0,1.886,,sunabllobxadqcyttej.jpg,,,,4,1570974149.9506,1570974147.9457,34,36.0,Memory,,,,0,396,246,246
247,247,,Novel_Uncued_Cat,,,,Place,,Face,,,,,/data/su,3.0,0.6940000000000001,,sunaanlwnpqndclffxt.jpg,,,,4,1570974152.9598,1570974150.96,34,37.0,Memory,,,,0,397,247,247
248,248,,Novel_Uncued_Cat,,,,Place,,Face,,,,,/data/su,3.0,0.818,,sunaaemixhfquhnxxlm.jpg,,,,4,1570974155.9764,1570974153.9641,34,38.0,Memory,,,,0,398,248,248
249,249,,Full,,,,Face,,Face,,,,,/data/su,2.0,0.6779999999999999,,00801941205fa.jpg,,,,4,1570974158.9766,1570974156.9821,34,39.0,Memory,,,,0,399,249,249
250,250,3.0,,x,0.8426000000000009,0.8426000000000009,,1.0,Place,00810941205fa_sunahctntqrunhdxhtb.jpg,00810941205fa.jpg,sunahctntqrunhdxhtb.jpg,<,/data/su,,,,,,,,5,1570974275.8174,1570974272.8038,34,0.0,Presentation,01207940128fa_sundbixjudsgeuuehrn.jpg,01207940128fa.jpg,sundbixjudsgeuuehrn.jpg,0,40,250,250
251,251,1.0,,o,1.7012999999999998,1.7012999999999998,,1.0,Place,00483940519fa_sunabyvpwkgsjtijdwj.jpg,00483940519fa.jpg,sunabyvpwkgsjtijdwj.jpg,<,/data/su,,,,,,,,5,1570974280.7024,1570974277.688,34,1.0,Presentation,00906960530fa_sunantryfbloeaomfta.jpg,00906960530fa.jpg,sunantryfbloeaomfta.jpg,0,41,251,251
252,252,1.0,,x,0.7816000000000011,0.7816000000000011,,1.0,Place,00796941205fa_sunaguchqqnrtodtezq.jpg,00796941205fa.jpg,sunaguchqqnrtodtezq.jpg,<,/data/su,,,,,,,,5,1570974286.4539,1570974283.4395,34,2.0,Presentation,00993960627fa_sunbprywzqxjcezkbch.jpg,00993960627fa.jpg,sunbprywzqxjcezkbch.jpg,0,42,252,252
253,253,3.0,,x,1.5386999999999986,1.5386999999999986,,1.0,Place,00862940307fa_sunaizgnnplsvajzhkc.jpg,00862940307fa.jpg,sunaizgnnplsvajzhkc.jpg,<,/data/su,,,,,,,,5,1570974291.2893,1570974288.2745,34,3.0,Presentation,00968960627fa_sunbagfpovqwbuexqdn.jpg,00968960627fa.jpg,sunbagfpovqwbuexqdn.jpg,0,43,253,253
254,254,3.0,,x,0.8094999999999999,0.8094999999999999,,1.0,Place,00184940128fa_sunaavtbadenwnzeutj.jpg,00184940128fa.jpg,sunaavtbadenwnzeutj.jpg,<,/data/su,,,,,,,,5,1570974296.8742,1570974293.8599,34,4.0,Presentation,00973960627fa_sunbbgtoeuzierkkajt.jpg,00973960627fa.jpg,sunbbgtoeuzierkkajt.jpg,0,44,254,254
255,255,1.0,,o,1.8462000000000032,1.8462000000000032,,1.0,Place,00910960530fa_sunaofikylqtxphvdem.jpg,00910960530fa.jpg,sunaofikylqtxphvdem.jpg,<,/data/su,,,,,,,,5,1570974301.7259,1570974298.711,34,5.0,Presentation,00214940128fa_sunabbafjowbzcvbucc.jpg,00214940128fa.jpg,sunabbafjowbzcvbucc.jpg,0,45,255,255
256,256,1.0,,o,0.9677999999999968,0.9677999999999968,,1.0,Place,00893960530Fa_sunaloffvbvysigxent.jpg,00893960530Fa.jpg,sunaloffvbvysigxent.jpg,<,/data/su,,,,,,,,5,1570974307.6278,1570974304.6128,34,6.0,Presentation,00650941031fa_sunadikxpvqeabxrvvc.jpg,00650941031fa.jpg,sunadikxpvqeabxrvvc.jpg,0,46,256,256
257,257,3.0,,x,0.8053000000000026,0.8053000000000026,,1.0,Place,01000960627fa_sunbvzmgrdvaakxusbu.jpg,01000960627fa.jpg,sunbvzmgrdvaakxusbu.jpg,<,/data/su,,,,,,,,5,1570974312.6462998,1570974309.6316,34,7.0,Presentation,00949960627fb_sunasnqkkyhilqkxiqm.jpg,00949960627fb.jpg,sunasnqkkyhilqkxiqm.jpg,0,47,257,257
258,258,3.0,,x,3.4183999999999983,3.4183999999999983,,1.0,Place,00913960530fa_sunaooffzffbhcpirmm.jpg,00913960530fa.jpg,sunaooffzffbhcpirmm.jpg,<,/data/su,,,,,,,,5,1570974317.4973998,1570974314.4829998,34,8.0,Presentation,01005960627fa_sunbwyuesflwdpqtgoy.jpg,01005960627fa.jpg,sunbwyuesflwdpqtgoy.jpg,0,48,258,258
259,259,1.0,,o,1.036999999999999,1.036999999999999,,1.0,Place,00866940307fa_sunajbwkywmsqkldfml.jpg,00866940307fa.jpg,sunajbwkywmsqkldfml.jpg,<,/data/su,,,,,,,,5,1570974324.9666998,1570974321.9524,34,9.0,Presentation,00123931230fb_sunaalcrrdbjgdztbiz.jpg,00123931230fb.jpg,sunaalcrrdbjgdztbiz.jpg,0,49,259,259
260,260,,Novel_Uncued_Cat,,,,Face,,Place,,,,,/data/su,2.0,0.941,,00670941121fa.jpg,,,,5,1570974330.7695,1570974328.7875,34,0.0,Memory,,,,0,320,260,260
261,261,,None,,,,Face,,Place,,,,,/data/su,3.0,0.8270000000000001,,00968960627fa.jpg,,,,5,1570974333.7845,1570974331.7722,34,1.0,Memory,,,,0,321,261,261
262,262,,Novel_Cued_Cat,,,,Place,,Place,,,,,/data/su,4.0,0.8809999999999999,,sunaavodbcpygkggnfp.jpg,,,,5,1570974336.7911,1570974334.7894,34,2.0,Memory,,,,0,322,262,262
263,263,,Category,,,,Place,,Place,,,,,/data/su,2.0,1.003,,sunbprywzqxjcezkbch.jpg,,,,5,1570974339.8046,1570974337.7904,34,3.0,Memory,,,,0,323,263,263
264,264,,None,,,,Face,,Place,,,,,/data/su,2.0,0.8909999999999999,,00949960627fb.jpg,,,,5,1570974342.8073,1570974340.8084998,34,4.0,Memory,,,,0,324,264,264
265,265,,Novel_Cued_Cat,,,,Place,,Place,,,,,/data/su,,0.0,,sunaeutbrtswvsozxyk.jpg,,,,5,1570974345.8227,1570974343.809,34,5.0,Memory,,,,0,325,265,265
266,266,,Novel_Cued_Cat,,,,Place,,Place,,,,,/data/su,,0.0,,sunaakxjfbrrequcjmx.jpg,,,,5,1570974348.8279998,1570974346.8276,34,6.0,Memory,,,,0,326,266,266
267,267,,Novel_Uncued_Cat,,,,Face,,Place,,,,,/data/su,2.0,0.799,,00122931230fa.jpg,,,,5,1570974351.8437998,1570974349.8276,34,7.0,Memory,,,,0,327,267,267
268,268,,Category,,,,Place,,Place,,,,,/data/su,3.0,1.0759999999999998,,sunaalcrrdbjgdztbiz.jpg,,,,5,1570974354.8584,1570974352.8462,34,8.0,Memory,,,,0,328,268,268
269,269,,Side,,,,Face,,Place,,,,,/data/su,2.0,0.539,,00910960530fa.jpg,,,,5,1570974357.8591,1570974355.8632,34,9.0,Memory,,,,0,329,269,269
270,270,,Side,,,,Face,,Place,,,,,/data/su,2.0,0.545,,00796941205fa.jpg,,,,5,1570974360.8615,1570974358.8637,34,10.0,Memory,,,,0,330,270,270
271,271,,Category,,,,Place,,Place,,,,,/data/su,2.0,0.623,,sunasnqkkyhilqkxiqm.jpg,,,,5,1570974363.8684,1570974361.8656,34,11.0,Memory,,,,0,331,271,271
272,272,,None,,,,Face,,Place,,,,,/data/su,3.0,0.755,,00123931230fb.jpg,,,,5,1570974366.8792,1570974364.8658998,34,12.0,Memory,,,,0,332,272,272
273,273,,Novel_Uncued_Cat,,,,Face,,Place,,,,,/data/su,2.0,0.588,,00158931230fb.jpg,,,,5,1570974369.8794,1570974367.8969,34,13.0,Memory,,,,0,333,273,273
274,274,,None,,,,Face,,Place,,,,,/data/su,2.0,1.8230000000000002,,00993960627fa.jpg,,,,5,1570974372.8888,1570974370.885,34,14.0,Memory,,,,0,334,274,274
275,275,,Novel_Uncued_Cat,,,,Face,,Place,,,,,/data/su,2.0,0.621,,00568940928fa.jpg,,,,5,1570974375.8986,1570974373.8853998,34,15.0,Memory,,,,0,335,275,275
276,276,,Novel_Uncued_Cat,,,,Face,,Place,,,,,/data/su,3.0,1.425,,00163931230fb.jpg,,,,5,1570974378.9041,1570974376.9034998,34,16.0,Memory,,,,0,336,276,276
277,277,,Side,,,,Face,,Place,,,,,/data/su,2.0,0.7170000000000001,,01000960627fa.jpg,,,,5,1570974381.9174,1570974379.9044,34,17.0,Memory,,,,0,337,277,277
278,278,,Novel_Uncued_Cat,,,,Face,,Place,,,,,/data/su,2.0,0.703,,00747941201fa.jpg,,,,5,1570974384.9181,1570974382.9219,34,18.0,Memory,,,,0,338,278,278
279,279,,Novel_Cued_Cat,,,,Place,,Place,,,,,/data/su,3.0,1.137,,sunagetqixeypsysbpn.jpg,,,,5,1570974387.9233,1570974385.9229,34,19.0,Memory,,,,0,339,279,279
280,280,,Novel_Cued_Cat,,,,Place,,Place,,,,,/data/su,,0.0,,sunafgdqbclkwfocdhg.jpg,,,,5,1570974390.9377,1570974388.9233,34,20.0,Memory,,,,0,340,280,280
281,281,,Side,,,,Face,,Place,,,,,/data/su,,0.0,,00913960530fa.jpg,,,,5,1570974393.954,1570974391.9413998,34,21.0,Memory,,,,0,341,281,281
282,282,,None,,,,Face,,Place,,,,,/data/su,,0.0,,00973960627fa.jpg,,,,5,1570974396.9604,1570974394.9587,34,22.0,Memory,,,,0,342,282,282
283,283,,Novel_Cued_Cat,,,,Place,,Place,,,,,/data/su,,0.0,,sunbbfqwjpdxniyhies.jpg,,,,5,1570974399.9628,1570974397.9604,34,23.0,Memory,,,,0,343,283,283
284,284,,Novel_Uncued_Cat,,,,Face,,Place,,,,,/data/su,2.0,0.606,,00780960530fa.jpg,,,,5,1570974402.9738998,1570974400.9608998,34,24.0,Memory,,,,0,344,284,284
285,285,,Side,,,,Face,,Place,,,,,/data/su,2.0,0.826,,00483940519fa.jpg,,,,5,1570974405.982,1570974403.9782,34,25.0,Memory,,,,0,345,285,285
286,286,,Full,,,,Place,,Place,,,,,/data/su,4.0,1.3619999999999999,,sunaguchqqnrtodtezq.jpg,,,,5,1570974408.9926,1570974406.9794998,34,26.0,Memory,,,,0,346,286,286
287,287,,Full,,,,Place,,Place,,,,,/data/su,,0.0,,sunabyvpwkgsjtijdwj.jpg,,,,5,1570974412.0106,1570974409.9979,34,27.0,Memory,,,,0,347,287,287
288,288,,Full,,,,Place,,Place,,,,,/data/su,,0.0,,sunaofikylqtxphvdem.jpg,,,,5,1570974415.0116,1570974413.0284,34,28.0,Memory,,,,0,348,288,288
289,289,,Novel_Uncued_Cat,,,,Face,,Place,,,,,/data/su,,0.0,,00761960627fa.jpg,,,,5,1570974418.0205,1570974416.0166,34,29.0,Memory,,,,0,349,289,289
290,290,,Novel_Uncued_Cat,,,,Face,,Place,,,,,/data/su,2.0,0.586,,00851940307fa.jpg,,,,5,1570974421.0304,1570974419.0301,34,30.0,Memory,,,,0,350,290,290
291,291,,Category,,,,Place,,Place,,,,,/data/su,2.0,0.726,,sunbbgtoeuzierkkajt.jpg,,,,5,1570974424.0366,1570974422.0347,34,31.0,Memory,,,,0,351,291,291
292,292,,Novel_Cued_Cat,,,,Place,,Place,,,,,/data/su,2.0,0.624,,sunaivflshbyfrfzhqb.jpg,,,,5,1570974427.0484,1570974425.0359,34,32.0,Memory,,,,0,352,292,292
293,293,,Novel_Uncued_Cat,,,,Face,,Place,,,,,/data/su,2.0,0.8370000000000001,,00972960627fa.jpg,,,,5,1570974430.0500998,1570974428.0532,34,33.0,Memory,,,,0,353,293,293
294,294,,Novel_Cued_Cat,,,,Place,,Place,,,,,/data/su,3.0,0.856,,sunadochqcucscehsgk.jpg,,,,5,1570974433.0665998,1570974431.0547,34,34.0,Memory,,,,0,354,294,294
295,295,,Novel_Cued_Cat,,,,Place,,Place,,,,,/data/su,2.0,0.879,,sunacsdhbbsybcyxnel.jpg,,,,5,1570974436.0724,1570974434.0717,34,35.0,Memory,,,,0,355,295,295
296,296,,Novel_Cued_Cat,,,,Place,,Place,,,,,/data/su,3.0,1.383,,sunaavchcbptaerhcfy.jpg,,,,5,1570974439.0855,1570974437.0737998,34,36.0,Memory,,,,0,356,296,296
297,297,,Full,,,,Place,,Place,,,,,/data/su,2.0,1.071,,sunbvzmgrdvaakxusbu.jpg,,,,5,1570974442.0939999,1570974440.1043,34,37.0,Memory,,,,0,357,297,297
298,298,,Category,,,,Place,,Place,,,,,/data/su,3.0,1.555,,sunbagfpovqwbuexqdn.jpg,,,,5,1570974445.1057,1570974443.092,34,38.0,Memory,,,,0,358,298,298
299,299,,Full,,,,Place,,Place,,,,,/data/su,4.0,1.173,,sunaooffzffbhcpirmm.jpg,,,,5,1570974448.1081,1570974446.11,34,39.0,Memory,,,,0,359,299,299
300,300,3.0,,x,0.6942000000000004,0.6942000000000004,,1.0,Face,00782941205fa_sunagfvluwixdsozaql.jpg,00782941205fa.jpg,sunagfvluwixdsozaql.jpg,>,/data/su,,,,,,,,6,1570974541.6344,1570974538.6199,34,0.0,Presentation,00793941205fa_sunagtjwilqjvxohypn.jpg,00793941205fa.jpg,sunagtjwilqjvxohypn.jpg,0,60,300,300
301,301,1.0,,o,1.1427000000000014,1.1427000000000014,,1.0,Face,00263940128fb_sunabjuovqvyfuzvqwt.jpg,00263940128fb.jpg,sunabjuovqvyfuzvqwt.jpg,>,/data/su,,,,,,,,6,1570974546.3858998,1570974543.3714998,34,1.0,Presentation,00116931230fa_sunaakqepfoeqomfgxf.jpg,00116931230fa.jpg,sunaakqepfoeqomfgxf.jpg,0,61,301,301
302,302,1.0,,o,1.0215999999999994,1.0215999999999994,,1.0,Face,00816941205fa_sunahmhrncocyhsjpxk.jpg,00816941205fa.jpg,sunahmhrncocyhsjpxk.jpg,>,/data/su,,,,,,,,6,1570974551.5709,1570974548.5563998,34,2.0,Presentation,00092931230fa_sunaaheqzstzxuadglu.jpg,00092931230fa.jpg,sunaaheqzstzxuadglu.jpg,0,62,302,302
303,303,3.0,,x,0.9936000000000008,0.9936000000000008,,1.0,Face,00858940307fa_sunaixpqndlwhwjtjek.jpg,00858940307fa.jpg,sunaixpqndlwhwjtjek.jpg,>,/data/su,,,,,,,,6,1570974556.6390998,1570974553.6248,34,3.0,Presentation,00062931230fb_sunaaelotvjgibjtjhs.jpg,00062931230fb.jpg,sunaaelotvjgibjtjhs.jpg,0,63,303,303
304,304,3.0,,x,1.2622,1.2622,,1.0,Face,00741941201fa_sunaemcowdozyphwknd.jpg,00741941201fa.jpg,sunaemcowdozyphwknd.jpg,>,/data/su,,,,,,,,6,1570974561.6744,1570974558.6597998,34,4.0,Presentation,00081941031fa_sunaaftlyfudyzuhqzf.jpg,00081941031fa.jpg,sunaaftlyfudyzuhqzf.jpg,0,64,304,304
305,305,1.0,,o,0.9200000000000016,0.9200000000000016,,1.0,Face,00131931230fb_sunaangbuylfvckqqoo.jpg,00131931230fb.jpg,sunaangbuylfvckqqoo.jpg,>,/data/su,,,,,,,,6,1570974566.9926,1570974563.9783,34,5.0,Presentation,00705941205fa_sunadtlxenqqxsyjvix.jpg,00705941205fa.jpg,sunadtlxenqqxsyjvix.jpg,0,65,305,305
306,306,3.0,,x,1.0875000000000057,1.0875000000000057,,1.0,Face,00576941031fa_sunacvjlsylseoghjup.jpg,00576941031fa.jpg,sunacvjlsylseoghjup.jpg,>,/data/su,,,,,,,,6,1570974571.961,1570974568.9464,34,6.0,Presentation,00805941205fa_sunagwzdbtlixdhgolm.jpg,00805941205fa.jpg,sunagwzdbtlixdhgolm.jpg,0,66,306,306
307,307,1.0,,o,1.7685999999999993,1.7685999999999993,,1.0,Face,00953960627fa_sunatstrpjxhvtbaczf.jpg,00953960627fa.jpg,sunatstrpjxhvtbaczf.jpg,>,/data/su,,,,,,,,6,1570974577.0958998,1570974574.0816,34,7.0,Presentation,00082931230fa_sunaafvitpexrpvumsa.jpg,00082931230fa.jpg,sunaafvitpexrpvumsa.jpg,0,67,307,307
308,308,3.0,,x,0.926000000000002,0.926000000000002,,1.0,Face,00950960627fa_sunasrjlmglmjzbmqxb.jpg,00950960627fa.jpg,sunasrjlmglmjzbmqxb.jpg,>,/data/su,,,,,,,,6,1570974582.9144,1570974579.9002,34,8.0,Presentation,00790941205fa_sunagpjzsbltchlwvou.jpg,00790941205fa.jpg,sunagpjzsbltchlwvou.jpg,0,68,308,308
309,309,3.0,,x,1.1252999999999955,1.1252999999999955,,1.0,Face,00985960627fa_sunbgklxeqjhdbyfhhy.jpg,00985960627fa.jpg,sunbgklxeqjhdbyfhhy.jpg,>,/data/su,,,,,,,,6,1570974587.883,1570974584.8681998,34,9.0,Presentation,00633940928fa_sunadbhmrgrrpyzglxs.jpg,00633940928fa.jpg,sunadbhmrgrrpyzglxs.jpg,0,69,309,309
310,310,,Category,,,,Face,,Face,,,,,/data/su,3.0,0.161,,00705941205fa.jpg,,,,6,1570974593.85,1570974591.8546,34,0.0,Memory,,,,0,240,310,310
311,311,,Novel_Uncued_Cat,,,,Place,,Face,,,,,/data/su,3.0,0.94,,sunabohxbskznglnrhv.jpg,,,,6,1570974596.8511,1570974594.8549,34,1.0,Memory,,,,0,241,311,311
312,312,,Category,,,,Face,,Face,,,,,/data/su,2.0,1.078,,00062931230fb.jpg,,,,6,1570974599.8539,1570974597.8558998,34,2.0,Memory,,,,0,242,312,312
313,313,,Novel_Uncued_Cat,,,,Place,,Face,,,,,/data/su,2.0,1.3769999999999998,,sunaprnrbmgkomdbchr.jpg,,,,6,1570974602.8611,1570974600.857,34,3.0,Memory,,,,0,243,313,313
314,314,,Novel_Uncued_Cat,,,,Place,,Face,,,,,/data/su,2.0,1.036,,sunabizydfotqddlnjp.jpg,,,,6,1570974605.8746,1570974603.8711998,34,4.0,Memory,,,,0,244,314,314
315,315,,Novel_Uncued_Cat,,,,Place,,Face,,,,,/data/su,2.0,0.966,,sunaiwduelojtwaqeyh.jpg,,,,6,1570974608.8916998,1570974606.8756998,34,5.0,Memory,,,,0,245,315,315
316,316,,Novel_Cued_Cat,,,,Face,,Face,,,,,/data/su,2.0,0.956,,00636941031fa.jpg,,,,6,1570974611.9094,1570974609.8928,34,6.0,Memory,,,,0,246,316,316
317,317,,Novel_Uncued_Cat,,,,Place,,Face,,,,,/data/su,2.0,1.208,,sunaapxkpvrhpjplsok.jpg,,,,6,1570974614.9227,1570974612.9109,34,7.0,Memory,,,,0,247,317,317
318,318,,Side,,,,Place,,Face,,,,,/data/su,2.0,1.548,,sunatstrpjxhvtbaczf.jpg,,,,6,1570974617.9257,1570974615.929,34,8.0,Memory,,,,0,248,318,318
319,319,,Category,,,,Face,,Face,,,,,/data/su,2.0,1.011,,00116931230fa.jpg,,,,6,1570974620.9257,1570974618.9295,34,9.0,Memory,,,,0,249,319,319
320,320,,Novel_Uncued_Cat,,,,Place,,Face,,,,,/data/su,2.0,1.12,,sunabeyhmxodahoieyk.jpg,,,,6,1570974623.9306,1570974621.9302998,34,10.0,Memory,,,,0,250,320,320
321,321,,None,,,,Place,,Face,,,,,/data/su,,0.0,,sunaaheqzstzxuadglu.jpg,,,,6,1570974626.9441,1570974624.9313998,34,11.0,Memory,,,,0,251,321,321
322,322,,None,,,,Place,,Face,,,,,/data/su,,0.0,,sunaakqepfoeqomfgxf.jpg,,,,6,1570974629.9611998,1570974627.9494,34,12.0,Memory,,,,0,252,322,322
323,323,,Novel_Cued_Cat,,,,Face,,Face,,,,,/data/su,2.0,1.228,,00929960627fa.jpg,,,,6,1570974632.9627998,1570974630.9666998,34,13.0,Memory,,,,0,253,323,323
324,324,,Novel_Cued_Cat,,,,Face,,Face,,,,,/data/su,3.0,0.861,,00262940128fa.jpg,,,,6,1570974635.9682,1570974633.9678,34,14.0,Memory,,,,0,254,324,324
325,325,,Category,,,,Face,,Face,,,,,/data/su,4.0,0.8340000000000001,,00092931230fa.jpg,,,,6,1570974638.9815998,1570974636.9689999,34,15.0,Memory,,,,0,255,325,325
326,326,,Novel_Cued_Cat,,,,Face,,Face,,,,,/data/su,2.0,0.858,,00822940307fa.jpg,,,,6,1570974641.9838,1570974639.9996,34,16.0,Memory,,,,0,256,326,326
327,327,,Novel_Cued_Cat,,,,Face,,Face,,,,,/data/su,2.0,0.8220000000000001,,00891960530fa.jpg,,,,6,1570974644.9992998,1570974642.9882,34,17.0,Memory,,,,0,257,327,327
328,328,,None,,,,Place,,Face,,,,,/data/su,4.0,1.046,,sunaaftlyfudyzuhqzf.jpg,,,,6,1570974648.0024,1570974646.0054,34,18.0,Memory,,,,0,258,328,328
329,329,,Novel_Uncued_Cat,,,,Place,,Face,,,,,/data/su,2.0,0.971,,sunahqrxievfeusiqlt.jpg,,,,6,1570974651.0186,1570974649.0057998,34,19.0,Memory,,,,0,259,329,329
330,330,,Full,,,,Face,,Face,,,,,/data/su,2.0,0.8540000000000001,,00953960627fa.jpg,,,,6,1570974654.0196998,1570974652.024,34,20.0,Memory,,,,0,260,330,330
331,331,,Full,,,,Face,,Face,,,,,/data/su,2.0,1.2919999999999998,,00782941205fa.jpg,,,,6,1570974657.0366998,1570974655.0242,34,21.0,Memory,,,,0,261,331,331
332,332,,Novel_Cued_Cat,,,,Face,,Face,,,,,/data/su,4.0,0.96,,00720960620fa.jpg,,,,6,1570974660.0422,1570974658.0422,34,22.0,Memory,,,,0,262,332,332
333,333,,Full,,,,Face,,Face,,,,,/data/su,2.0,0.8390000000000001,,00816941205fa.jpg,,,,6,1570974663.0566998,1570974661.0426998,34,23.0,Memory,,,,0,263,333,333
334,334,,Novel_Uncued_Cat,,,,Place,,Face,,,,,/data/su,2.0,0.993,,sunalkiibhqpxfamlll.jpg,,,,6,1570974666.0652,1570974664.0607,34,24.0,Memory,,,,0,264,334,334
335,335,,Side,,,,Place,,Face,,,,,/data/su,2.0,0.948,,sunbgklxeqjhdbyfhhy.jpg,,,,6,1570974669.0737,1570974667.0626998,34,25.0,Memory,,,,0,265,335,335
336,336,,Novel_Uncued_Cat,,,,Place,,Face,,,,,/data/su,,0.0,,sunaddtdkycxbqlpfqa.jpg,,,,6,1570974672.0753,1570974670.0800998,34,26.0,Memory,,,,0,266,336,336
337,337,,Novel_Cued_Cat,,,,Face,,Face,,,,,/data/su,,0.0,,00854940307fa.jpg,,,,6,1570974675.0812,1570974673.0937,34,27.0,Memory,,,,0,267,337,337
338,338,,None,,,,Place,,Face,,,,,/data/su,2.0,1.115,,sunaaelotvjgibjtjhs.jpg,,,,6,1570974678.097,1570974676.0812998,34,28.0,Memory,,,,0,268,338,338
339,339,,Side,,,,Place,,Face,,,,,/data/su,2.0,0.804,,sunagfvluwixdsozaql.jpg,,,,6,1570974681.1141,1570974679.0986998,34,29.0,Memory,,,,0,269,339,339
340,340,,Novel_Cued_Cat,,,,Face,,Face,,,,,/data/su,,0.0,,00142931230fb.jpg,,,,6,1570974684.1293,1570974682.1165,34,30.0,Memory,,,,0,270,340,340
341,341,,None,,,,Place,,Face,,,,,/data/su,,0.0,,sunadtlxenqqxsyjvix.jpg,,,,6,1570974687.1299,1570974685.1355,34,31.0,Memory,,,,0,271,341,341
342,342,,Full,,,,Face,,Face,,,,,/data/su,2.0,1.746,,00985960627fa.jpg,,,,6,1570974690.1327,1570974688.135,34,32.0,Memory,,,,0,272,342,342
343,343,,Side,,,,Place,,Face,,,,,/data/su,2.0,0.955,,sunasrjlmglmjzbmqxb.jpg,,,,6,1570974693.1402,1570974691.1369,34,33.0,Memory,,,,0,273,343,343
344,344,,Novel_Cued_Cat,,,,Face,,Face,,,,,/data/su,2.0,0.9209999999999999,,00245940128fa.jpg,,,,6,1570974696.1553998,1570974694.1374998,34,34.0,Memory,,,,0,274,344,344
345,345,,Novel_Uncued_Cat,,,,Place,,Face,,,,,/data/su,3.0,1.04,,sunaecpkgfewqqreqwe.jpg,,,,6,1570974699.1683998,1570974697.1546,34,35.0,Memory,,,,0,275,345,345
346,346,,Novel_Cued_Cat,,,,Face,,Face,,,,,/data/su,2.0,0.703,,00280940422fb.jpg,,,,6,1570974702.1688,1570974700.1727998,34,36.0,Memory,,,,0,276,346,346
347,347,,Side,,,,Place,,Face,,,,,/data/su,2.0,0.927,,sunahmhrncocyhsjpxk.jpg,,,,6,1570974705.1729,1570974703.1732998,34,37.0,Memory,,,,0,277,347,347
348,348,,Category,,,,Face,,Face,,,,,/data/su,2.0,1.5090000000000001,,00081941031fa.jpg,,,,6,1570974708.1869,1570974706.1750998,34,38.0,Memory,,,,0,278,348,348
349,349,,Full,,,,Face,,Face,,,,,/data/su,2.0,0.8909999999999999,,00950960627fa.jpg,,,,6,1570974711.1885,1570974709.2054,34,39.0,Memory,,,,0,279,349,349
350,350,3.0,,x,0.9158999999999988,0.9158999999999988,,1.0,Place,00063931230fa_sunaaelyvurpntclgau.jpg,00063931230fa.jpg,sunaaelyvurpntclgau.jpg,>,/data/su,,,,,,,,7,1570974806.8018,1570974803.7879,34,0.0,Presentation,00061931230fb_sunaaekxzjzrfgtkwjf.jpg,00061931230fb.jpg,sunaaekxzjzrfgtkwjf.jpg,0,70,350,350
351,351,1.0,,o,1.123899999999999,1.123899999999999,,1.0,Place,00997960627fa_sunbtpilbhhbmhmeuzq.jpg,00997960627fa.jpg,sunbtpilbhhbmhmeuzq.jpg,>,/data/su,,,,,,,,7,1570974811.77,1570974808.7554998,34,1.0,Presentation,00111931230fb_sunaakgekhjklxmvulj.jpg,00111931230fb.jpg,sunaakgekhjklxmvulj.jpg,0,71,351,351
352,352,1.0,,o,0.7877000000000011,0.7877000000000011,,1.0,Place,00260940128fa_sunabgfhvifeijihhjw.jpg,00260940128fa.jpg,sunabgfhvifeijihhjw.jpg,>,/data/su,,,,,,,,7,1570974816.9382,1570974813.9235,34,2.0,Presentation,00915960620fa_sunapileznnbbmrwoei.jpg,00915960620fa.jpg,sunapileznnbbmrwoei.jpg,0,72,352,352
353,353,3.0,,x,0.8562000000000012,0.8562000000000012,,1.0,Place,01003960627fb_sunbwdrdvsweerwsdrj.jpg,01003960627fb.jpg,sunbwdrdvsweerwsdrj.jpg,>,/data/su,,,,,,,,7,1570974821.7735,1570974818.7583,34,3.0,Presentation,00119931230fb_sunaakvmbftkrgqhjun.jpg,00119931230fb.jpg,sunaakvmbftkrgqhjun.jpg,0,73,353,353
354,354,1.0,,o,0.7706999999999979,0.7706999999999979,,1.0,Place,00827940307fa_sunahtfxgsrmkiulnwk.jpg,00827940307fa.jpg,sunahtfxgsrmkiulnwk.jpg,>,/data/su,,,,,,,,7,1570974826.675,1570974823.6603,34,4.0,Presentation,00878960530fa_sunakgbnzxmfohgehnu.jpg,00878960530fa.jpg,sunakgbnzxmfohgehnu.jpg,0,74,354,354
355,355,1.0,,o,0.7606999999999999,0.7606999999999999,,1.0,Place,00146960620fb_sunaatpeezlljqaxlhj.jpg,00146960620fb.jpg,sunaatpeezlljqaxlhj.jpg,>,/data/su,,,,,,,,7,1570974831.4929,1570974828.4786,34,5.0,Presentation,00763941205fa_sunafhmnhsdurlvddpw.jpg,00763941205fa.jpg,sunafhmnhsdurlvddpw.jpg,0,75,355,355
356,356,1.0,,o,0.7829999999999941,0.7829999999999941,,0.0,Place,00876960620fa_sunajwqkfsykceonyig.jpg,00876960620fa.jpg,sunajwqkfsykceonyig.jpg,>,/data/su,,,,,,,,7,1570974836.2947,1570974833.2805998,34,6.0,Presentation,00313940422fa_sunabwjvmoaddlyxfjr.jpg,00313940422fa.jpg,sunabwjvmoaddlyxfjr.jpg,0,76,356,356
357,357,3.0,,x,0.8042000000000016,0.8042000000000016,,1.0,Place,00162931230fb_sunaavjinpnkappuonm.jpg,00162931230fb.jpg,sunaavjinpnkappuonm.jpg,>,/data/su,,,,,,,,7,1570974841.1296,1570974838.1152,34,7.0,Presentation,00792941205fa_sunagsiwrmuixqgdimb.jpg,00792941205fa.jpg,sunagsiwrmuixqgdimb.jpg,0,77,357,357
358,358,1.0,,o,0.7446999999999946,0.7446999999999946,,0.0,Place,00080931230fb_sunaafjszryxyavjzln.jpg,00080931230fb.jpg,sunaafjszryxyavjzln.jpg,>,/data/su,,,,,,,,7,1570974845.9810998,1570974842.9671,34,8.0,Presentation,00885960530fa_sunakwlvxjpddialozd.jpg,00885960530fa.jpg,sunakwlvxjpddialozd.jpg,0,78,358,358
359,359,3.0,,o,0.7115000000000009,0.7115000000000009,,1.0,Place,00700941121fa_sunadsgmtznewzyasnk.jpg,00700941121fa.jpg,sunadsgmtznewzyasnk.jpg,>,/data/su,,,,,,,,7,1570974850.7661,1570974847.7524,34,9.0,Presentation,00775941205fa_sunafvwfsmqkjrutjta.jpg,00775941205fa.jpg,sunafvwfsmqkjrutjta.jpg,0,79,359,359
360,360,,Novel_Cued_Cat,,,,Place,,Place,,,,,/data/su,3.0,1.172,,sunadnjjzohjhbohlwq.jpg,,,,7,1570974856.1752,1570974854.1878,34,0.0,Memory,,,,0,280,360,360
361,361,,Novel_Uncued_Cat,,,,Face,,Place,,,,,/data/su,2.0,0.7979999999999999,,00922960627fa.jpg,,,,7,1570974859.1831,1570974857.1849,34,1.0,Memory,,,,0,281,361,361
362,362,,Novel_Cued_Cat,,,,Place,,Place,,,,,/data/su,2.0,0.8590000000000001,,sunahedfrhtcwpneund.jpg,,,,7,1570974862.1942,1570974860.1892,34,2.0,Memory,,,,0,282,362,362
363,363,,Side,,,,Face,,Place,,,,,/data/su,2.0,0.9329999999999999,,01003960627fb.jpg,,,,7,1570974865.2066,1570974863.2202,34,3.0,Memory,,,,0,283,363,363
364,364,,Side,,,,Face,,Place,,,,,/data/su,2.0,0.784,,00162931230fb.jpg,,,,7,1570974868.2204,1570974866.2079,34,4.0,Memory,,,,0,284,364,364
365,365,,None,,,,Face,,Place,,,,,/data/su,4.0,0.9940000000000001,,00915960620fa.jpg,,,,7,1570974871.2244,1570974869.2249,34,5.0,Memory,,,,0,285,365,365
366,366,,Category,,,,Place,,Place,,,,,/data/su,2.0,0.733,,sunaaekxzjzrfgtkwjf.jpg,,,,7,1570974874.2412,1570974872.2261,34,6.0,Memory,,,,0,286,366,366
367,367,,None,,,,Face,,Place,,,,,/data/su,3.0,1.218,,00061931230fb.jpg,,,,7,1570974877.2441,1570974875.2449,34,7.0,Memory,,,,0,287,367,367
368,368,,Novel_Uncued_Cat,,,,Face,,Place,,,,,/data/su,2.0,0.7490000000000001,,00086931230fa.jpg,,,,7,1570974880.2587,1570974878.2582,34,8.0,Memory,,,,0,288,368,368
369,369,,Category,,,,Place,,Place,,,,,/data/su,2.0,0.713,,sunakwlvxjpddialozd.jpg,,,,7,1570974883.2653,1570974881.2624,34,9.0,Memory,,,,0,289,369,369
370,370,,Category,,,,Place,,Place,,,,,/data/su,2.0,1.022,,sunafhmnhsdurlvddpw.jpg,,,,7,1570974886.2781,1570974884.2637,34,10.0,Memory,,,,0,290,370,370
371,371,,Side,,,,Face,,Place,,,,,/data/su,2.0,0.674,,00080931230fb.jpg,,,,7,1570974889.2849,1570974887.2808,34,11.0,Memory,,,,0,291,371,371
372,372,,Novel_Cued_Cat,,,,Place,,Place,,,,,/data/su,2.0,0.588,,sunachtuarilwyqnvjx.jpg,,,,7,1570974892.2948,1570974890.2826,34,12.0,Memory,,,,0,292,372,372
373,373,,Full,,,,Place,,Place,,,,,/data/su,2.0,0.46,,sunbwdrdvsweerwsdrj.jpg,,,,7,1570974895.2967,1570974893.2994,34,13.0,Memory,,,,0,293,373,373
374,374,,Novel_Uncued_Cat,,,,Face,,Place,,,,,/data/su,3.0,0.752,,00925960627fa.jpg,,,,7,1570974898.3138,1570974896.3013,34,14.0,Memory,,,,0,294,374,374
375,375,,Novel_Uncued_Cat,,,,Face,,Place,,,,,/data/su,2.0,0.669,,00811960530fa.jpg,,,,7,1570974901.3167,1570974899.3184,34,15.0,Memory,,,,0,295,375,375
376,376,,Full,,,,Place,,Place,,,,,/data/su,2.0,0.8270000000000001,,sunahtfxgsrmkiulnwk.jpg,,,,7,1570974904.3217,1570974902.3197,34,16.0,Memory,,,,0,296,376,376
377,377,,Full,,,,Place,,Place,,,,,/data/su,3.0,1.4180000000000001,,sunaatpeezlljqaxlhj.jpg,,,,7,1570974907.3385,1570974905.3205,34,17.0,Memory,,,,0,297,377,377
378,378,,Novel_Cued_Cat,,,,Place,,Place,,,,,/data/su,2.0,0.797,,sunapqwnqzxlsfvgsjm.jpg,,,,7,1570974910.3513,1570974908.3379,34,18.0,Memory,,,,0,298,378,378
379,379,,Novel_Cued_Cat,,,,Place,,Place,,,,,/data/su,2.0,0.792,,sunaafynehyrzpsoaml.jpg,,,,7,1570974913.3595,1570974911.3552,34,19.0,Memory,,,,0,299,379,379
380,380,,None,,,,Face,,Place,,,,,/data/su,2.0,0.46799999999999997,,00775941205fa.jpg,,,,7,1570974916.3722,1570974914.3562,34,20.0,Memory,,,,0,300,380,380
381,381,,Novel_Cued_Cat,,,,Place,,Place,,,,,/data/su,3.0,0.787,,sunapmfmzadmosuogaz.jpg,,,,7,1570974919.389,1570974917.3738,34,21.0,Memory,,,,0,301,381,381
382,382,,Novel_Cued_Cat,,,,Place,,Place,,,,,/data/su,2.0,0.721,,sunabclssnoeuigtawp.jpg,,,,7,1570974922.3948998,1570974920.3917,34,22.0,Memory,,,,0,302,382,382
383,383,,Category,,,,Place,,Place,,,,,/data/su,2.0,0.764,,sunapileznnbbmrwoei.jpg,,,,7,1570974925.4062,1570974923.4062,34,23.0,Memory,,,,0,303,383,383
384,384,,Side,,,,Face,,Place,,,,,/data/su,2.0,1.236,,00827940307fa.jpg,,,,7,1570974928.4116,1570974926.4117,34,24.0,Memory,,,,0,304,384,384
385,385,,Full,,,,Place,,Place,,,,,/data/su,3.0,1.232,,sunaavjinpnkappuonm.jpg,,,,7,1570974931.4143,1570974929.4118,34,25.0,Memory,,,,0,305,385,385
386,386,,Novel_Cued_Cat,,,,Place,,Place,,,,,/data/su,2.0,1.229,,sunapwjkcxdaeqehfql.jpg,,,,7,1570974934.4249,1570974932.4256,34,26.0,Memory,,,,0,306,386,386
387,387,,Category,,,,Place,,Place,,,,,/data/su,3.0,1.247,,sunafvwfsmqkjrutjta.jpg,,,,7,1570974937.4264,1570974935.4312,34,27.0,Memory,,,,0,307,387,387
388,388,,None,,,,Face,,Place,,,,,/data/su,2.0,0.629,,00885960530fa.jpg,,,,7,1570974940.4271,1570974938.4315,34,28.0,Memory,,,,0,308,388,388
389,389,,None,,,,Face,,Place,,,,,/data/su,2.0,0.846,,00763941205fa.jpg,,,,7,1570974943.4346,1570974941.4326,34,29.0,Memory,,,,0,309,389,389
390,390,,Novel_Uncued_Cat,,,,Face,,Place,,,,,/data/su,2.0,0.865,,00864940307fa.jpg,,,,7,1570974946.4469,1570974944.4461,34,30.0,Memory,,,,0,310,390,390
391,391,,Novel_Uncued_Cat,,,,Face,,Place,,,,,/data/su,2.0,0.825,,00663941121fa.jpg,,,,7,1570974949.4532,1570974947.451,34,31.0,Memory,,,,0,311,391,391
392,392,,Novel_Uncued_Cat,,,,Face,,Place,,,,,/data/su,2.0,0.816,,00933960627fa.jpg,,,,7,1570974952.4647,1570974950.4652998,34,32.0,Memory,,,,0,312,392,392
393,393,,Full,,,,Place,,Place,,,,,/data/su,3.0,1.111,,sunaafjszryxyavjzln.jpg,,,,7,1570974955.4663,1570974953.4687,34,33.0,Memory,,,,0,313,393,393
394,394,,Side,,,,Face,,Place,,,,,/data/su,2.0,0.7020000000000001,,00146960620fb.jpg,,,,7,1570974958.4838,1570974956.4712,34,34.0,Memory,,,,0,314,394,394
395,395,,Novel_Uncued_Cat,,,,Face,,Place,,,,,/data/su,2.0,0.662,,00919960620fa.jpg,,,,7,1570974961.5008,1570974959.4877,34,35.0,Memory,,,,0,315,395,395
396,396,,Novel_Cued_Cat,,,,Place,,Place,,,,,/data/su,,0.0,,sunajawzbrlrwafowen.jpg,,,,7,1570974964.5009,1570974962.5051,34,36.0,Memory,,,,0,316,396,396
397,397,,Novel_Uncued_Cat,,,,Face,,Place,,,,,/data/su,2.0,1.26,,00235940128fb.jpg,,,,7,1570974967.5109,1570974965.5068998,34,37.0,Memory,,,,0,317,397,397
398,398,,Novel_Uncued_Cat,,,,Face,,Place,,,,,/data/su,2.0,0.73,,00557940519fa.jpg,,,,7,1570974970.5239,1570974968.5209,34,38.0,Memory,,,,0,318,398,398
399,399,,Novel_Cued_Cat,,,,Place,,Place,,,,,/data/su,3.0,0.733,,sunapqkyghktgtosuuk.jpg,,,,7,1570974973.5376,1570974971.5253,34,39.0,Memory,,,,0,319,399,399
400,0,3.0,,o,1.2112000000000016,1.2112000000000016,,1.0,Face,00126931230fb_sunaamdjwemxpmmtypi.jpg,00126931230fb.jpg,sunaamdjwemxpmmtypi.jpg,<,/data/su,,,,,,,,0,1571329291.8226,1571329288.8229,40,0.0,Presentation,00149931230fa_sunaauglwmctnkxyird.jpg,00149931230fa.jpg,sunaauglwmctnkxyird.jpg,1,20,0,0
401,1,1.0,,x,0.9282000000000004,0.9282000000000004,,1.0,Face,00822940307fa_sunahqrxievfeusiqlt.jpg,00822940307fa.jpg,sunahqrxievfeusiqlt.jpg,<,/data/su,,,,,,,,0,1571329297.0575,1571329294.0564,40,1.0,Presentation,00973960627fa_sunbbgtoeuzierkkajt.jpg,00973960627fa.jpg,sunbbgtoeuzierkkajt.jpg,1,21,1,1
402,2,3.0,,o,0.9041999999999994,0.9041999999999994,,1.0,Face,00214940128fa_sunabbafjowbzcvbucc.jpg,00214940128fa.jpg,sunabbafjowbzcvbucc.jpg,<,/data/su,,,,,,,,0,1571329302.0094,1571329299.0083,40,2.0,Presentation,00983960627fa_sunbfyvfqiimvdaxlqn.jpg,00983960627fa.jpg,sunbfyvfqiimvdaxlqn.jpg,1,22,2,2
403,3,3.0,,o,0.8104000000000013,0.8104000000000013,,1.0,Face,00902960530fa_sunanaacmmosxrfwmvl.jpg,00902960530fa.jpg,sunanaacmmosxrfwmvl.jpg,<,/data/su,,,,,,,,0,1571329306.9273,1571329303.9253,40,3.0,Presentation,00308940422fb_sunabwfvcqqidycwypa.jpg,00308940422fb.jpg,sunabwfvcqqidycwypa.jpg,1,23,3,3
404,4,1.0,,x,0.9759999999999992,0.9759999999999992,,1.0,Face,00908960530fa_sunanwjjyqqwzqrqagd.jpg,00908960530fa.jpg,sunanwjjyqqwzqrqagd.jpg,<,/data/su,,,,,,,,0,1571329311.7616,1571329308.7608,40,4.0,Presentation,00901960530fa_sunammbnoambmhdxdwd.jpg,00901960530fa.jpg,sunammbnoambmhdxdwd.jpg,1,24,4,4
405,5,1.0,,x,0.5910999999999973,0.5910999999999973,,1.0,Face,00895960530fa_sunamczizlzavhzhpay.jpg,00895960530fa.jpg,sunamczizlzavhzhpay.jpg,<,/data/su,,,,,,,,0,1571329316.7627,1571329313.7612,40,5.0,Presentation,00073931230fa_sunaafbmtoniaasysgu.jpg,00073931230fa.jpg,sunaafbmtoniaasysgu.jpg,1,25,5,5
406,6,3.0,,o,0.7578000000000031,0.7578000000000031,,1.0,Face,00851940307fa_sunaivflshbyfrfzhqb.jpg,00851940307fa.jpg,sunaivflshbyfrfzhqb.jpg,<,/data/su,,,,,,,,0,1571329321.38,1571329318.3796,40,6.0,Presentation,00789960620fa_sunagpancjmxqfazssf.jpg,00789960620fa.jpg,sunagpancjmxqfazssf.jpg,1,26,6,6
407,7,3.0,,o,0.5964000000000027,0.5964000000000027,,1.0,Face,00081941031fa_sunaaftlyfudyzuhqzf.jpg,00081941031fa.jpg,sunaaftlyfudyzuhqzf.jpg,<,/data/su,,,,,,,,0,1571329326.1652,1571329323.1637,40,7.0,Presentation,00136931230fb_sunaanptmsknhirrzed.jpg,00136931230fb.jpg,sunaanptmsknhirrzed.jpg,1,27,7,7
408,8,1.0,,x,0.6104999999999947,0.6104999999999947,,1.0,Face,00784941205fb_sunagjzcrjvmxzqzljx.jpg,00784941205fb.jpg,sunagjzcrjvmxzqzljx.jpg,<,/data/su,,,,,,,,0,1571329330.7831,1571329327.7823,40,8.0,Presentation,00854940307fa_sunaiwduelojtwaqeyh.jpg,00854940307fa.jpg,sunaiwduelojtwaqeyh.jpg,1,28,8,8
409,9,1.0,,x,0.6478999999999999,0.6478999999999999,,1.0,Face,00131931230fb_sunaangbuylfvckqqoo.jpg,00131931230fb.jpg,sunaangbuylfvckqqoo.jpg,<,/data/su,,,,,,,,0,1571329335.4175,1571329332.4167,40,9.0,Presentation,00761960627fa_sunafgdqbclkwfocdhg.jpg,00761960627fa.jpg,sunafgdqbclkwfocdhg.jpg,1,29,9,9
410,10,,Novel_Cued_Cat,,,,Face,,Face,,,,,/data/su,,0.0,,00124931230fa.jpg,,,,0,1571329344.9703,1571329342.9686,40,0.0,Memory,,,,1,80,10,10
411,11,,Novel_Uncued_Cat,,,,Place,,Face,,,,,/data/su,2.0,1.5519999999999998,,sunaetydippjxikifsb.jpg,,,,0,1571329347.9867,1571329345.9698,40,1.0,Memory,,,,1,81,11,11
412,12,,None,,,,Place,,Face,,,,,/data/su,1.0,1.052,,sunammbnoambmhdxdwd.jpg,,,,0,1571329350.9878,1571329348.9871,40,2.0,Memory,,,,1,82,12,12
413,13,,Novel_Uncued_Cat,,,,Place,,Face,,,,,/data/su,,0.0,,sunaiozxhxgtfrmoagh.jpg,,,,0,1571329354.0045002,1571329351.9881,40,3.0,Memory,,,,1,83,13,13
414,14,,Full,,,,Face,,Face,,,,,/data/su,2.0,1.287,,00081941031fa.jpg,,,,0,1571329357.0057,1571329355.006,40,4.0,Memory,,,,1,84,14,14
415,15,,Side,,,,Place,,Face,,,,,/data/su,2.0,1.4509999999999998,,sunaaftlyfudyzuhqzf.jpg,,,,0,1571329360.0225,1571329358.0055,40,5.0,Memory,,,,1,85,15,15
416,16,,Novel_Cued_Cat,,,,Face,,Face,,,,,/data/su,1.0,1.636,,00838940307fa.jpg,,,,0,1571329363.0231,1571329361.0229998,40,6.0,Memory,,,,1,86,16,16
417,17,,Novel_Uncued_Cat,,,,Place,,Face,,,,,/data/su,,0.0,,sunaayehfdqcyxggsej.jpg,,,,0,1571329366.0249,1571329364.0236,40,7.0,Memory,,,,1,87,17,17
418,18,,Side,,,,Place,,Face,,,,,/data/su,2.0,1.585,,sunagjzcrjvmxzqzljx.jpg,,,,0,1571329369.0411,1571329367.0245,40,8.0,Memory,,,,1,88,18,18
419,19,,Novel_Cued_Cat,,,,Face,,Face,,,,,/data/su,1.0,0.953,,00507940519fa.jpg,,,,0,1571329372.0421,1571329370.043,40,9.0,Memory,,,,1,89,19,19
420,20,,Novel_Uncued_Cat,,,,Place,,Face,,,,,/data/su,1.0,1.486,,sunagvprlbprarvgdvj.jpg,,,,0,1571329375.0436,1571329373.0433002,40,10.0,Memory,,,,1,90,20,20
421,21,,Full,,,,Face,,Face,,,,,/data/su,2.0,1.052,,00851940307fa.jpg,,,,0,1571329378.06,1571329376.0442,40,11.0,Memory,,,,1,91,21,21
422,22,,Novel_Uncued_Cat,,,,Place,,Face,,,,,/data/su,2.0,1.62,,sunaalhlvzmjmitybdn.jpg,,,,0,1571329381.0608,1571329379.0607,40,12.0,Memory,,,,1,92,22,22
423,23,,Novel_Uncued_Cat,,,,Place,,Face,,,,,/data/su,1.0,1.5030000000000001,,sunabppokiyglaxpcha.jpg,,,,0,1571329384.0781,1571329382.0621,40,13.0,Memory,,,,1,93,23,23
424,24,,Novel_Uncued_Cat,,,,Place,,Face,,,,,/data/su,1.0,1.6540000000000001,,sunadrmfzmstgdjdcod.jpg,,,,0,1571329387.0788,1571329385.0793,40,14.0,Memory,,,,1,94,24,24
425,25,,None,,,,Place,,Face,,,,,/data/su,1.0,1.203,,sunaauglwmctnkxyird.jpg,,,,0,1571329390.0804,1571329388.0801,40,15.0,Memory,,,,1,95,25,25
426,26,,Novel_Cued_Cat,,,,Face,,Face,,,,,/data/su,3.0,1.119,,00288940422fa.jpg,,,,0,1571329393.0976,1571329391.0809,40,16.0,Memory,,,,1,96,26,26
427,27,,Novel_Uncued_Cat,,,,Place,,Face,,,,,/data/su,1.0,0.903,,sunantryfbloeaomfta.jpg,,,,0,1571329396.1154,1571329394.0981,40,17.0,Memory,,,,1,97,27,27
428,28,,Side,,,,Place,,Face,,,,,/data/su,,0.0,,sunanwjjyqqwzqrqagd.jpg,,,,0,1571329399.1317,1571329397.115,40,18.0,Memory,,,,1,98,28,28
429,29,,Full,,,,Face,,Face,,,,,/data/su,4.0,1.236,,00902960530fa.jpg,,,,0,1571329402.1328,1571329400.1331,40,19.0,Memory,,,,1,99,29,29
430,30,,Category,,,,Face,,Face,,,,,/data/su,4.0,1.169,,00073931230fa.jpg,,,,0,1571329405.1339,1571329403.1329,40,20.0,Memory,,,,1,100,30,30
431,31,,None,,,,Place,,Face,,,,,/data/su,1.0,1.5190000000000001,,sunbfyvfqiimvdaxlqn.jpg,,,,0,1571329408.151,1571329406.1344,40,21.0,Memory,,,,1,101,31,31
432,32,,None,,,,Place,,Face,,,,,/data/su,2.0,1.07,,sunaafbmtoniaasysgu.jpg,,,,0,1571329411.1516,1571329409.1512,40,22.0,Memory,,,,1,102,32,32
433,33,,None,,,,Place,,Face,,,,,/data/su,1.0,1.213,,sunabwfvcqqidycwypa.jpg,,,,0,1571329414.1684,1571329412.1529,40,23.0,Memory,,,,1,103,33,33
434,34,,Category,,,,Face,,Face,,,,,/data/su,3.0,1.214,,00149931230fa.jpg,,,,0,1571329417.1802,1571329415.1696,40,24.0,Memory,,,,1,104,34,34
435,35,,Category,,,,Face,,Face,,,,,/data/su,3.0,1.203,,00901960530fa.jpg,,,,0,1571329420.184,1571329418.1857,40,25.0,Memory,,,,1,105,35,35
436,36,,Category,,,,Face,,Face,,,,,/data/su,2.0,0.883,,00308940422fb.jpg,,,,0,1571329423.199,1571329421.1866,40,26.0,Memory,,,,1,106,36,36
437,37,,Category,,,,Face,,Face,,,,,/data/su,4.0,1.252,,00983960627fa.jpg,,,,0,1571329426.2195,1571329424.2016,40,27.0,Memory,,,,1,107,37,37
438,38,,Novel_Cued_Cat,,,,Face,,Face,,,,,/data/su,4.0,1.149,,00906960530fa.jpg,,,,0,1571329429.2331,1571329427.2304,40,28.0,Memory,,,,1,108,38,38
439,39,,Side,,,,Place,,Face,,,,,/data/su,1.0,0.836,,sunaivflshbyfrfzhqb.jpg,,,,0,1571329432.2346,1571329430.2488,40,29.0,Memory,,,,1,109,39,39
440,40,,Novel_Cued_Cat,,,,Face,,Face,,,,,/data/su,1.0,1.886,,00746941201fa.jpg,,,,0,1571329435.2535,1571329433.2492,40,30.0,Memory,,,,1,110,40,40
441,41,,Novel_Uncued_Cat,,,,Place,,Face,,,,,/data/su,1.0,1.256,,sunacacflqoyxhsqzhe.jpg,,,,0,1571329438.269,1571329436.2663,40,31.0,Memory,,,,1,111,41,41
442,42,,Novel_Cued_Cat,,,,Face,,Face,,,,,/data/su,2.0,1.087,,00694941121fa.jpg,,,,0,1571329441.2864,1571329439.2834,40,32.0,Memory,,,,1,112,42,42
443,43,,Full,,,,Face,,Face,,,,,/data/su,2.0,0.8859999999999999,,00784941205fb.jpg,,,,0,1571329444.2873,1571329442.3015,40,33.0,Memory,,,,1,113,43,43
444,44,,Side,,,,Place,,Face,,,,,/data/su,1.0,1.287,,sunanaacmmosxrfwmvl.jpg,,,,0,1571329447.2891,1571329445.3026,40,34.0,Memory,,,,1,114,44,44
445,45,,Full,,,,Face,,Face,,,,,/data/su,2.0,1.186,,00908960530fa.jpg,,,,0,1571329450.3062,1571329448.3031,40,35.0,Memory,,,,1,115,45,45
446,46,,Novel_Uncued_Cat,,,,Place,,Face,,,,,/data/su,3.0,1.7209999999999999,,sunaddtdkycxbqlpfqa.jpg,,,,0,1571329453.3081,1571329451.3202,40,36.0,Memory,,,,1,116,46,46
447,47,,Novel_Cued_Cat,,,,Face,,Face,,,,,/data/su,1.0,1.006,,00636941031fa.jpg,,,,0,1571329456.3291,1571329454.3108,40,37.0,Memory,,,,1,117,47,47
448,48,,Novel_Cued_Cat,,,,Face,,Face,,,,,/data/su,2.0,1.536,,00194940128fb.jpg,,,,0,1571329459.3465002,1571329457.3292,40,38.0,Memory,,,,1,118,48,48
449,49,,Novel_Cued_Cat,,,,Face,,Face,,,,,/data/su,3.0,1.3659999999999999,,00801941205fa.jpg,,,,0,1571329462.3579,1571329460.3467,40,39.0,Memory,,,,1,119,49,49
450,50,1.0,,x,1.0799000000000003,1.0799000000000003,,1.0,Place,00859940307fa_sunaiycurtqsfkvcaso.jpg,00859940307fa.jpg,sunaiycurtqsfkvcaso.jpg,>,/data/su,,,,,,,,1,1571329581.1918,1571329578.1744,40,0.0,Presentation,00060931230fa_sunaaehaikpckyjsety.jpg,00060931230fa.jpg,sunaaehaikpckyjsety.jpg,1,30,50,50
451,51,3.0,,o,0.9296999999999968,0.9296999999999968,,1.0,Place,00130931230fa_sunaamvxnvouicstkjb.jpg,00130931230fa.jpg,sunaamvxnvouicstkjb.jpg,>,/data/su,,,,,,,,1,1571329586.3422,1571329583.3242002,40,1.0,Presentation,00631940928fa_sunadbdqzigzwipuipr.jpg,00631940928fa.jpg,sunadbdqzigzwipuipr.jpg,1,31,51,51
452,52,1.0,,x,0.7446000000000019,0.7446000000000019,,1.0,Place,00647941031fa_sunadflbrkckmepztql.jpg,00647941031fa.jpg,sunadflbrkckmepztql.jpg,>,/data/su,,,,,,,,1,1571329591.3432002,1571329588.3260002,40,2.0,Presentation,00705960530fa_sunaduslxfzlbxlllnz.jpg,00705960530fa.jpg,sunaduslxfzlbxlllnz.jpg,1,32,52,52
453,53,1.0,,x,0.6623999999999981,0.6623999999999981,,1.0,Place,00227940128fa_sunabckqabszusgcykj.jpg,00227940128fa.jpg,sunabckqabszusgcykj.jpg,>,/data/su,,,,,,,,1,1571329596.1613002,1571329593.1445,40,3.0,Presentation,00776941205fa_sunafxokyavhgptyfye.jpg,00776941205fa.jpg,sunafxokyavhgptyfye.jpg,1,33,53,53
454,54,3.0,,o,0.8787999999999982,0.8787999999999982,,1.0,Place,00772941201fa_sunafpfpiiujzoesnqg.jpg,00772941201fa.jpg,sunafpfpiiujzoesnqg.jpg,>,/data/su,,,,,,,,1,1571329600.8968,1571329597.8789,40,4.0,Presentation,00911960530fa_sunaooaqzputrowwbsw.jpg,00911960530fa.jpg,sunaooaqzputrowwbsw.jpg,1,34,54,54
455,55,1.0,,x,0.5439999999999969,0.5439999999999969,,1.0,Place,00961960627fa_sunawotxrevnqvamsfp.jpg,00961960627fa.jpg,sunawotxrevnqvamsfp.jpg,>,/data/su,,,,,,,,1,1571329605.8478005,1571329602.8301,40,5.0,Presentation,00670941121fa_sunadochqcucscehsgk.jpg,00670941121fa.jpg,sunadochqcucscehsgk.jpg,1,35,55,55
456,56,3.0,,o,0.9025999999999996,0.9025999999999996,,1.0,Place,00146960620fb_sunaatpeezlljqaxlhj.jpg,00146960620fb.jpg,sunaatpeezlljqaxlhj.jpg,>,/data/su,,,,,,,,1,1571329610.4649005,1571329607.4483,40,6.0,Presentation,00799941205fa_sunagutjvdvnhxejerz.jpg,00799941205fa.jpg,sunagutjvdvnhxejerz.jpg,1,36,56,56
457,57,3.0,,o,0.7494000000000014,0.7494000000000014,,1.0,Place,00987960627fa_sunbloeoiozwjjsiamp.jpg,00987960627fa.jpg,sunbloeoiozwjjsiamp.jpg,>,/data/su,,,,,,,,1,1571329615.4265,1571329612.4156,40,7.0,Presentation,00770941201fa_sunaflojskatpeqyzqp.jpg,00770941201fa.jpg,sunaflojskatpeqyzqp.jpg,1,37,57,57
458,58,3.0,,o,0.7396999999999991,0.7396999999999991,,1.0,Place,00142931230fb_sunaapxkpvrhpjplsok.jpg,00142931230fb.jpg,sunaapxkpvrhpjplsok.jpg,>,/data/su,,,,,,,,1,1571329620.2437,1571329617.2261002,40,8.0,Presentation,00218940128fa_sunabbwggenhfbftyvi.jpg,00218940128fa.jpg,sunabbwggenhfbftyvi.jpg,1,38,58,58
459,59,3.0,,o,0.617999999999995,0.617999999999995,,1.0,Place,00752960620fa_sunafbwnojpqeyzssoe.jpg,00752960620fa.jpg,sunafbwnojpqeyzssoe.jpg,>,/data/su,,,,,,,,1,1571329625.0458002,1571329622.0274005,40,9.0,Presentation,00263940128fb_sunabjuovqvyfuzvqwt.jpg,00263940128fb.jpg,sunabjuovqvyfuzvqwt.jpg,1,39,59,59
460,60,,Novel_Cued_Cat,,,,Place,,Place,,,,,/data/su,1.0,1.6880000000000002,,sunabohxbskznglnrhv.jpg,,,,1,1571329634.1338,1571329632.1635,40,0.0,Memory,,,,1,120,60,60
461,61,,Novel_Uncued_Cat,,,,Face,,Place,,,,,/data/su,1.0,1.219,,00742941201fa.jpg,,,,1,1571329637.1508002,1571329635.147,40,1.0,Memory,,,,1,121,61,61
462,62,,Novel_Cued_Cat,,,,Place,,Place,,,,,/data/su,3.0,1.324,,sunagtumacdlmciqamz.jpg,,,,1,1571329640.1573002,1571329638.1647,40,2.0,Memory,,,,1,122,62,62
463,63,,Novel_Cued_Cat,,,,Place,,Place,,,,,/data/su,2.0,0.8190000000000001,,sunadpnqovzckyikrjo.jpg,,,,1,1571329643.1574,1571329641.1582,40,3.0,Memory,,,,1,123,63,63
464,64,,Novel_Uncued_Cat,,,,Face,,Place,,,,,/data/su,2.0,1.454,,00874940307fa.jpg,,,,1,1571329646.1583002,1571329644.1584,40,4.0,Memory,,,,1,124,64,64
465,65,,Side,,,,Face,,Place,,,,,/data/su,2.0,0.9359999999999999,,00772941201fa.jpg,,,,1,1571329649.1752002,1571329647.1595,40,5.0,Memory,,,,1,125,65,65
466,66,,Category,,,,Place,,Place,,,,,/data/su,,0.0,,sunaaehaikpckyjsety.jpg,,,,1,1571329652.1766002,1571329650.1763,40,6.0,Memory,,,,1,126,66,66
467,67,,None,,,,Face,,Place,,,,,/data/su,4.0,1.3359999999999999,,00060931230fa.jpg,,,,1,1571329655.1944,1571329653.1772,40,7.0,Memory,,,,1,127,67,67
468,68,,Novel_Uncued_Cat,,,,Face,,Place,,,,,/data/su,1.0,1.0859999999999999,,00630941031fa.jpg,,,,1,1571329658.2104,1571329656.1943002,40,8.0,Memory,,,,1,128,68,68
469,69,,Side,,,,Face,,Place,,,,,/data/su,2.0,1.137,,00142931230fb.jpg,,,,1,1571329661.2119002,1571329659.2118,40,9.0,Memory,,,,1,129,69,69
470,70,,Novel_Cued_Cat,,,,Place,,Place,,,,,/data/su,1.0,1.92,,sunarfdklgdnjgeqfjg.jpg,,,,1,1571329664.2135,1571329662.2132,40,10.0,Memory,,,,1,130,70,70
471,71,,Novel_Uncued_Cat,,,,Face,,Place,,,,,/data/su,1.0,0.985,,00942960627fa.jpg,,,,1,1571329667.2306,1571329665.2132,40,11.0,Memory,,,,1,131,71,71
472,72,,Side,,,,Face,,Place,,,,,/data/su,4.0,1.052,,00752960620fa.jpg,,,,1,1571329670.2472005,1571329668.2313,40,12.0,Memory,,,,1,132,72,72
473,73,,None,,,,Face,,Place,,,,,/data/su,4.0,0.72,,00218940128fa.jpg,,,,1,1571329673.2652,1571329671.2478,40,13.0,Memory,,,,1,133,73,73
474,74,,Full,,,,Place,,Place,,,,,/data/su,2.0,1.42,,sunabckqabszusgcykj.jpg,,,,1,1571329676.2664,1571329674.2652,40,14.0,Memory,,,,1,134,74,74
475,75,,Novel_Uncued_Cat,,,,Face,,Place,,,,,/data/su,2.0,1.2690000000000001,,00063931230fa.jpg,,,,1,1571329679.2833002,1571329677.2668002,40,15.0,Memory,,,,1,135,75,75
476,76,,None,,,,Face,,Place,,,,,/data/su,1.0,1.37,,00705960530fa.jpg,,,,1,1571329682.3012002,1571329680.2839,40,16.0,Memory,,,,1,136,76,76
477,77,,None,,,,Face,,Place,,,,,/data/su,4.0,1.069,,00799941205fa.jpg,,,,1,1571329685.3186002,1571329683.3011005,40,17.0,Memory,,,,1,137,77,77
478,78,,Category,,,,Place,,Place,,,,,/data/su,3.0,1.252,,sunadochqcucscehsgk.jpg,,,,1,1571329688.3360002,1571329686.3191,40,18.0,Memory,,,,1,138,78,78
479,79,,Novel_Cued_Cat,,,,Place,,Place,,,,,/data/su,1.0,1.469,,sunaavchcbptaerhcfy.jpg,,,,1,1571329691.3533,1571329689.3354,40,19.0,Memory,,,,1,139,79,79
480,80,,Novel_Uncued_Cat,,,,Face,,Place,,,,,/data/su,2.0,1.102,,00819940307fa.jpg,,,,1,1571329694.3704002,1571329692.3539002,40,20.0,Memory,,,,1,140,80,80
481,81,,Full,,,,Place,,Place,,,,,/data/su,,0.0,,sunawotxrevnqvamsfp.jpg,,,,1,1571329697.3876002,1571329695.3711002,40,21.0,Memory,,,,1,141,81,81
482,82,,Novel_Uncued_Cat,,,,Face,,Place,,,,,/data/su,3.0,1.77,,00158931230fb.jpg,,,,1,1571329700.3892002,1571329698.3884,40,22.0,Memory,,,,1,142,82,82
483,83,,Novel_Cued_Cat,,,,Place,,Place,,,,,/data/su,1.0,1.102,,sunaaelyvurpntclgau.jpg,,,,1,1571329703.4057002,1571329701.3885002,40,23.0,Memory,,,,1,143,83,83
484,84,,Full,,,,Place,,Place,,,,,/data/su,4.0,1.22,,sunafbwnojpqeyzssoe.jpg,,,,1,1571329706.4059002,1571329704.4059002,40,24.0,Memory,,,,1,144,84,84
485,85,,Category,,,,Place,,Place,,,,,/data/su,1.0,1.5530000000000002,,sunagutjvdvnhxejerz.jpg,,,,1,1571329709.4076002,1571329707.4073002,40,25.0,Memory,,,,1,145,85,85
486,86,,Category,,,,Place,,Place,,,,,/data/su,2.0,1.018,,sunabbwggenhfbftyvi.jpg,,,,1,1571329712.4253,1571329710.4079,40,26.0,Memory,,,,1,146,86,86
487,87,,Category,,,,Place,,Place,,,,,/data/su,1.0,1.42,,sunaduslxfzlbxlllnz.jpg,,,,1,1571329715.4423,1571329713.4249,40,27.0,Memory,,,,1,147,87,87
488,88,,Full,,,,Place,,Place,,,,,/data/su,1.0,1.8019999999999998,,sunafpfpiiujzoesnqg.jpg,,,,1,1571329718.4596002,1571329716.4423,40,28.0,Memory,,,,1,148,88,88
489,89,,Full,,,,Place,,Place,,,,,/data/su,3.0,1.554,,sunaapxkpvrhpjplsok.jpg,,,,1,1571329721.4599,1571329719.4598002,40,29.0,Memory,,,,1,149,89,89
490,90,,Side,,,,Face,,Place,,,,,/data/su,4.0,0.968,,00961960627fa.jpg,,,,1,1571329724.4773002,1571329722.4602,40,30.0,Memory,,,,1,150,90,90
491,91,,Novel_Cued_Cat,,,,Place,,Place,,,,,/data/su,1.0,0.953,,sunahqldjibofgsfdgb.jpg,,,,1,1571329727.4780002,1571329725.4778,40,31.0,Memory,,,,1,151,91,91
492,92,,Novel_Cued_Cat,,,,Place,,Place,,,,,/data/su,1.0,1.287,,sunaenwuebvlpdmntju.jpg,,,,1,1571329730.479,1571329728.479,40,32.0,Memory,,,,1,152,92,92
493,93,,Novel_Cued_Cat,,,,Place,,Place,,,,,/data/su,1.0,0.87,,sunajtrfunvzdfticna.jpg,,,,1,1571329733.4958,1571329731.4802,40,33.0,Memory,,,,1,153,93,93
494,94,,Novel_Cued_Cat,,,,Place,,Place,,,,,/data/su,1.0,1.104,,sunadakkdovnuzlycvp.jpg,,,,1,1571329736.4976,1571329734.4971,40,34.0,Memory,,,,1,154,94,94
495,95,,Novel_Uncued_Cat,,,,Face,,Place,,,,,/data/su,3.0,1.234,,00795941205fa.jpg,,,,1,1571329739.508,1571329737.5132,40,35.0,Memory,,,,1,155,95,95
496,96,,None,,,,Face,,Place,,,,,/data/su,2.0,0.986,,00670941121fa.jpg,,,,1,1571329742.5086002,1571329740.5144002,40,36.0,Memory,,,,1,156,96,96
497,97,,Side,,,,Face,,Place,,,,,/data/su,2.0,1.006,,00227940128fa.jpg,,,,1,1571329745.5141,1571329743.5142002,40,37.0,Memory,,,,1,157,97,97
498,98,,Novel_Uncued_Cat,,,,Face,,Place,,,,,/data/su,1.0,0.8809999999999999,,00280940422fb.jpg,,,,1,1571329748.5317,1571329746.515,40,38.0,Memory,,,,1,158,98,98
499,99,,Novel_Uncued_Cat,,,,Face,,Place,,,,,/data/su,3.0,1.149,,00676941121fa.jpg,,,,1,1571329751.5487,1571329749.5327,40,39.0,Memory,,,,1,159,99,99
500,100,1.0,,x,0.8407,0.8407,,0.0,Place,00864940307fa_sunajawzbrlrwafowen.jpg,00864940307fa.jpg,sunajawzbrlrwafowen.jpg,<,/data/su,,,,,,,,2,1571329905.4571,1571329902.4406,40,0.0,Presentation,00997960627fa_sunbtpilbhhbmhmeuzq.jpg,00997960627fa.jpg,sunbtpilbhhbmhmeuzq.jpg,1,10,100,100
501,101,3.0,,o,0.7079000000000004,0.7079000000000004,,1.0,Place,00903960620fa_sunanainkqdvktzoxyl.jpg,00903960620fa.jpg,sunanainkqdvktzoxyl.jpg,<,/data/su,,,,,,,,2,1571329910.3579,1571329907.3402,40,1.0,Presentation,01009960627fa_sunbxzweleltykebgan.jpg,01009960627fa.jpg,sunbxzweleltykebgan.jpg,1,11,101,101
502,102,1.0,,x,0.7797000000000018,0.7797000000000018,,1.0,Place,00804960530fa_sunagwswhkvnsmuszlz.jpg,00804960530fa.jpg,sunagwswhkvnsmuszlz.jpg,<,/data/su,,,,,,,,2,1571329915.1261,1571329912.1092,40,2.0,Presentation,00633940928fa_sunadbhmrgrrpyzglxs.jpg,00633940928fa.jpg,sunadbhmrgrrpyzglxs.jpg,1,12,102,102
503,103,3.0,,o,0.8160999999999987,0.8160999999999987,,1.0,Place,00857940307fa_sunaiwfobocrruqznsv.jpg,00857940307fa.jpg,sunaiwfobocrruqznsv.jpg,<,/data/su,,,,,,,,2,1571329919.9778,1571329916.9595,40,3.0,Presentation,00630940928fa_sunaczwgyukesaajxnx.jpg,00630940928fa.jpg,sunaczwgyukesaajxnx.jpg,1,13,103,103
504,104,1.0,,x,0.7155000000000022,0.7155000000000022,,1.0,Place,00965960627fa_sunaydywdmvlfddbxbk.jpg,00965960627fa.jpg,sunaydywdmvlfddbxbk.jpg,<,/data/su,,,,,,,,2,1571329924.8622,1571329921.8448,40,4.0,Presentation,00747941201fa_sunaeutbrtswvsozxyk.jpg,00747941201fa.jpg,sunaeutbrtswvsozxyk.jpg,1,14,104,104
505,105,3.0,,o,0.5799999999999983,0.5799999999999983,,0.0,Place,00786941205fa_sunagmhildamktmqjss.jpg,00786941205fa.jpg,sunagmhildamktmqjss.jpg,<,/data/su,,,,,,,,2,1571329929.6457,1571329926.6284,40,5.0,Presentation,00540940519fa_sunacdnquypmsshhsbk.jpg,00540940519fa.jpg,sunacdnquypmsshhsbk.jpg,1,15,105,105
506,106,3.0,,o,0.6403999999999996,0.6403999999999996,,1.0,Place,00262940128fa_sunabizydfotqddlnjp.jpg,00262940128fa.jpg,sunabizydfotqddlnjp.jpg,<,/data/su,,,,,,,,2,1571329934.2975,1571329931.2799,40,6.0,Presentation,00101931230fb_sunaajqmsaavkmgbsth.jpg,00101931230fb.jpg,sunaajqmsaavkmgbsth.jpg,1,16,106,106
507,107,3.0,,o,0.6595999999999975,0.6595999999999975,,1.0,Place,00314940422fa_sunabwmcbaxwioksdgw.jpg,00314940422fa.jpg,sunabwmcbaxwioksdgw.jpg,<,/data/su,,,,,,,,2,1571329938.9981,1571329935.9808,40,7.0,Presentation,00836940307fa_sunainqelldeebvxtcz.jpg,00836940307fa.jpg,sunainqelldeebvxtcz.jpg,1,17,107,107
508,108,3.0,,o,0.6214000000000013,0.6214000000000013,,1.0,Place,00568940928fa_sunacsdhbbsybcyxnel.jpg,00568940928fa.jpg,sunacsdhbbsybcyxnel.jpg,<,/data/su,,,,,,,,2,1571329943.7324,1571329940.7154,40,8.0,Presentation,00972960627fa_sunbbfqwjpdxniyhies.jpg,00972960627fa.jpg,sunbbfqwjpdxniyhies.jpg,1,18,108,108
509,109,3.0,,o,0.6639000000000053,0.6639000000000053,,1.0,Place,00810941205fa_sunahctntqrunhdxhtb.jpg,00810941205fa.jpg,sunahctntqrunhdxhtb.jpg,<,/data/su,,,,,,,,2,1571329948.4179,1571329945.3999,40,9.0,Presentation,00871940307_sunajrujcsdxmfbssmc.jpg,00871940307.jpg,sunajrujcsdxmfbssmc.jpg,1,19,109,109
510,110,,Category,,,,Place,,Place,,,,,/data/su,1.0,1.364,,sunajrujcsdxmfbssmc.jpg,,,,2,1571329955.082,1571329953.0859,40,0.0,Memory,,,,1,200,110,110
511,111,,None,,,,Face,,Place,,,,,/data/su,3.0,1.969,,00633940928fa.jpg,,,,2,1571329958.0994,1571329956.0861,40,1.0,Memory,,,,1,201,111,111
512,112,,Category,,,,Place,,Place,,,,,/data/su,3.0,1.268,,sunadbhmrgrrpyzglxs.jpg,,,,2,1571329961.0993,1571329959.1015,40,2.0,Memory,,,,1,202,112,112
513,113,,Side,,,,Face,,Place,,,,,/data/su,1.0,0.935,,00568940928fa.jpg,,,,2,1571329964.0996,1571329962.1134,40,3.0,Memory,,,,1,203,113,113
514,114,,Novel_Uncued_Cat,,,,Face,,Place,,,,,/data/su,2.0,1.871,,00581940928fa.jpg,,,,2,1571329967.1027,1571329965.1155,40,4.0,Memory,,,,1,204,114,114
515,115,,Novel_Uncued_Cat,,,,Face,,Place,,,,,/data/su,1.0,1.367,,00829940307fa.jpg,,,,2,1571329970.1181,1571329968.1147,40,5.0,Memory,,,,1,205,115,115
516,116,,Full,,,,Place,,Place,,,,,/data/su,1.0,0.7859999999999999,,sunaydywdmvlfddbxbk.jpg,,,,2,1571329973.1181,1571329971.1332,40,6.0,Memory,,,,1,206,116,116
517,117,,Novel_Cued_Cat,,,,Place,,Place,,,,,/data/su,1.0,1.0859999999999999,,sunakodkcslgqhqlgwl.jpg,,,,2,1571329976.1196,1571329974.1338,40,7.0,Memory,,,,1,207,117,117
518,118,,Side,,,,Face,,Place,,,,,/data/su,1.0,0.9690000000000001,,00314940422fa.jpg,,,,2,1571329979.1204,1571329977.1346,40,8.0,Memory,,,,1,208,118,118
519,119,,Category,,,,Place,,Place,,,,,/data/su,1.0,0.769,,sunaczwgyukesaajxnx.jpg,,,,2,1571329982.1382,1571329980.1355,40,9.0,Memory,,,,1,209,119,119
520,120,,None,,,,Face,,Place,,,,,/data/su,1.0,0.935,,00747941201fa.jpg,,,,2,1571329985.1391,1571329983.1520002,40,10.0,Memory,,,,1,210,120,120
521,121,,None,,,,Face,,Place,,,,,/data/su,1.0,0.752,,00540940519fa.jpg,,,,2,1571329988.1555,1571329986.1532,40,11.0,Memory,,,,1,211,121,121
522,122,,Novel_Uncued_Cat,,,,Face,,Place,,,,,/data/su,2.0,1.386,,00210940128fb.jpg,,,,2,1571329991.159,1571329989.17,40,12.0,Memory,,,,1,212,122,122
523,123,,Novel_Cued_Cat,,,,Place,,Place,,,,,/data/su,1.0,0.652,,sunaecpkgfewqqreqwe.jpg,,,,2,1571329994.1776,1571329992.1717,40,13.0,Memory,,,,1,213,123,123
524,124,,Novel_Cued_Cat,,,,Place,,Place,,,,,/data/su,1.0,1.3159999999999998,,sunabanoxjtqxamkucc.jpg,,,,2,1571329997.1921,1571329995.1895,40,14.0,Memory,,,,1,214,124,124
525,125,,Novel_Uncued_Cat,,,,Face,,Place,,,,,/data/su,1.0,0.735,,00745941205fa.jpg,,,,2,1571330000.1921,1571329998.2065,40,15.0,Memory,,,,1,215,125,125
526,126,,Full,,,,Place,,Place,,,,,/data/su,2.0,1.426,,sunacsdhbbsybcyxnel.jpg,,,,2,1571330003.1993,1571330001.2074,40,16.0,Memory,,,,1,216,126,126
527,127,,Category,,,,Place,,Place,,,,,/data/su,,0.0,,sunacdnquypmsshhsbk.jpg,,,,2,1571330006.2158,1571330004.1989,40,17.0,Memory,,,,1,217,127,127
528,128,,Novel_Uncued_Cat,,,,Face,,Place,,,,,/data/su,1.0,0.785,,00705941205fa.jpg,,,,2,1571330009.2164,1571330007.2171,40,18.0,Memory,,,,1,218,128,128
529,129,,Full,,,,Place,,Place,,,,,/data/su,2.0,1.7369999999999999,,sunagmhildamktmqjss.jpg,,,,2,1571330012.2183,1571330010.2181,40,19.0,Memory,,,,1,219,129,129
530,130,,Novel_Uncued_Cat,,,,Face,,Place,,,,,/data/su,1.0,1.285,,00884960530fa.jpg,,,,2,1571330015.2193,1571330013.2176,40,20.0,Memory,,,,1,220,130,130
531,131,,None,,,,Face,,Place,,,,,/data/su,3.0,1.935,,00871940307.jpg,,,,2,1571330018.2355,1571330016.2195,40,21.0,Memory,,,,1,221,131,131
532,132,,Novel_Cued_Cat,,,,Place,,Place,,,,,/data/su,4.0,1.7630000000000001,,sunahwgbqkqcrwprgvh.jpg,,,,2,1571330021.2514,1571330019.2357,40,22.0,Memory,,,,1,222,132,132
533,133,,None,,,,Face,,Place,,,,,/data/su,2.0,1.815,,00630940928fa.jpg,,,,2,1571330024.2679,1571330022.2523,40,23.0,Memory,,,,1,223,133,133
534,134,,Novel_Cued_Cat,,,,Place,,Place,,,,,/data/su,1.0,1.383,,sunaaelotvjgibjtjhs.jpg,,,,2,1571330027.2694,1571330025.2697,40,24.0,Memory,,,,1,224,134,134
535,135,,Novel_Uncued_Cat,,,,Face,,Place,,,,,/data/su,,0.0,,00062931230fb.jpg,,,,2,1571330030.2858,1571330028.2706,40,25.0,Memory,,,,1,225,135,135
536,136,,Full,,,,Place,,Place,,,,,/data/su,2.0,1.433,,sunabwmcbaxwioksdgw.jpg,,,,2,1571330033.3023,1571330031.2885,40,26.0,Memory,,,,1,226,136,136
537,137,,Novel_Cued_Cat,,,,Place,,Place,,,,,/data/su,,0.0,,sunbbhqyyzmsxhsbjmp.jpg,,,,2,1571330036.3177,1571330034.3053,40,27.0,Memory,,,,1,227,137,137
538,138,,Novel_Cued_Cat,,,,Place,,Place,,,,,/data/su,4.0,1.5219999999999998,,sunaaemixhfquhnxxlm.jpg,,,,2,1571330039.3224,1571330037.3229,40,28.0,Memory,,,,1,228,138,138
539,139,,Side,,,,Face,,Place,,,,,/data/su,1.0,0.815,,00786941205fa.jpg,,,,2,1571330042.3357,1571330040.3244,40,29.0,Memory,,,,1,229,139,139
540,140,,Novel_Cued_Cat,,,,Place,,Place,,,,,/data/su,2.0,1.804,,sunaeouogqolxvggaoq.jpg,,,,2,1571330045.3526,1571330043.3413,40,30.0,Memory,,,,1,230,140,140
541,141,,Novel_Uncued_Cat,,,,Face,,Place,,,,,/data/su,1.0,0.77,,00976960627fa.jpg,,,,2,1571330048.3572,1571330046.3583,40,31.0,Memory,,,,1,231,141,141
542,142,,Novel_Uncued_Cat,,,,Face,,Place,,,,,/data/su,1.0,1.083,,00720960620fa.jpg,,,,2,1571330051.3584,1571330049.359,40,32.0,Memory,,,,1,232,142,142
543,143,,Full,,,,Place,,Place,,,,,/data/su,3.0,1.415,,sunajawzbrlrwafowen.jpg,,,,2,1571330054.3752,1571330052.36,40,33.0,Memory,,,,1,233,143,143
544,144,,Category,,,,Place,,Place,,,,,/data/su,3.0,1.6159999999999999,,sunaeutbrtswvsozxyk.jpg,,,,2,1571330057.3896,1571330055.377,40,34.0,Memory,,,,1,234,144,144
545,145,,Side,,,,Face,,Place,,,,,/data/su,1.0,0.7859999999999999,,00864940307fa.jpg,,,,2,1571330060.3914,1571330058.395,40,35.0,Memory,,,,1,235,145,145
546,146,,Novel_Uncued_Cat,,,,Face,,Place,,,,,/data/su,1.0,0.8859999999999999,,00065931230fb.jpg,,,,2,1571330063.391,1571330061.3951,40,36.0,Memory,,,,1,236,146,146
